timestamp,accel_x,accel_y,accel_z,gyro_x,gyro_y,gyro_z,mag_x,mag_y,mag_z,linacc_x,linacc_y,linacc_z,grav_x,grav_y,grav_z,gamerot_w,gamerot_x,gamerot_y,gamerot_z,label
1473662,-0.85,-4.38,8.36,-0.13,0.07,0.00,0.56,-4.00,-35.19,0.27,0.19,-0.14,-1.12,-4.57,8.51,0.61,-0.20,-0.15,0.75,12
1473702,-1.05,-4.49,8.56,-0.05,0.08,0.00,0.31,-4.75,-33.31,0.11,0.12,0.07,-1.16,-4.61,8.48,0.61,-0.20,-0.15,0.75,12
1473742,-1.46,-4.88,8.55,0.01,-0.04,0.03,-2.94,-3.44,-35.62,-0.30,-0.27,0.08,-1.16,-4.61,8.48,0.61,-0.20,-0.15,0.75,12
1473782,-1.20,-4.80,8.48,0.33,-0.07,0.12,-2.38,-3.12,-34.50,-0.08,-0.17,0.03,-1.16,-4.59,8.48,0.61,-0.20,-0.15,0.75,12
1473822,-1.39,-5.14,9.09,0.97,-0.32,0.09,-0.19,-4.12,-34.50,-0.27,-0.79,0.48,-1.12,-4.36,8.61,0.61,-0.19,-0.14,0.75,12
1473862,-1.24,-4.41,8.82,1.04,-0.41,0.12,-1.94,-4.88,-33.62,-0.22,-0.40,0.02,-1.02,-4.02,8.80,0.61,-0.17,-0.13,0.76,12
1473902,-0.85,-4.11,8.86,0.73,-0.19,0.05,-1.56,-6.38,-32.75,0.05,-0.45,-0.11,-0.91,-3.66,8.97,0.61,-0.15,-0.12,0.77,12
1473942,-1.01,-3.61,9.20,1.09,-0.34,0.05,-1.19,-8.12,-31.94,0.21,0.21,-0.52,-0.84,-3.40,9.07,0.62,-0.14,-0.11,0.77,12
1473982,-0.97,-3.23,9.21,0.88,-0.43,0.05,-0.31,-9.19,-31.31,-0.27,-0.23,-0.02,-0.70,-2.99,9.23,0.62,-0.12,-0.10,0.77,12
1474022,-0.55,-2.04,8.52,0.07,-0.01,0.00,-1.69,-10.88,-30.38,0.02,0.70,-0.80,-0.57,-2.74,9.31,0.62,-0.11,-0.09,0.77,12
1474062,-0.32,-1.93,8.66,-0.71,0.26,-0.01,-2.06,-10.94,-29.69,0.29,0.87,-0.62,-0.60,-2.80,9.29,0.62,-0.12,-0.10,0.77,12
1474102,-0.39,-2.69,8.94,-1.25,0.49,-0.11,-2.50,-9.75,-30.50,0.17,0.62,-0.13,-0.72,-3.12,9.18,0.62,-0.14,-0.11,0.77,12
1474142,-0.59,-2.80,8.44,-1.34,0.52,-0.05,-2.44,-9.06,-33.44,0.30,0.78,-0.55,-0.89,-3.59,8.98,0.62,-0.16,-0.12,0.76,12
1474182,-1.20,-3.77,8.71,-0.70,-0.01,0.20,-2.12,-6.69,-33.19,-0.16,0.29,-0.07,-1.04,-4.05,8.77,0.61,-0.18,-0.13,0.76,12
1474222,-2.08,-5.30,9.47,-0.20,-0.15,0.10,-2.88,-4.25,-36.69,-1.03,-1.05,0.79,-1.05,-4.24,8.68,0.61,-0.18,-0.14,0.76,12
1474262,-0.59,-4.19,8.48,-0.08,0.05,0.07,-3.81,-4.62,-37.12,0.13,-0.82,0.67,-1.02,-4.29,8.65,0.61,-0.18,-0.14,0.76,12
1474302,-0.85,-4.30,8.59,-0.03,0.09,0.08,-2.38,-4.81,-36.25,0.22,0.01,-0.04,-1.07,-4.31,8.63,0.61,-0.19,-0.14,0.76,12
1474342,-1.20,-4.38,8.62,-0.05,-0.03,0.04,-2.38,-3.88,-36.62,-0.10,-0.05,0.00,-1.10,-4.33,8.62,0.60,-0.19,-0.14,0.76,12
1474382,-1.20,-4.38,8.66,-0.08,-0.04,0.04,-2.94,-4.25,-37.00,-0.10,-0.04,0.06,-1.10,-4.34,8.61,0.60,-0.19,-0.14,0.76,12
1474422,-0.62,-4.45,8.62,-0.05,0.07,0.09,-2.56,-3.75,-35.25,0.09,-0.02,0.07,-1.10,-4.36,8.60,0.60,-0.19,-0.14,0.76,12
1474462,-0.59,-4.72,8.67,0.02,0.73,0.12,-2.38,-3.62,-37.00,0.64,-0.35,0.09,-1.23,-4.38,8.58,0.60,-0.20,-0.14,0.76,12
1474502,-2.08,-4.99,8.97,-0.08,0.21,0.13,-0.44,-2.88,-36.75,-0.60,-0.61,0.43,-1.48,-4.38,8.54,0.60,-0.21,-0.13,0.76,12
1474542,-2.58,-5.68,9.20,-0.12,-0.24,-0.06,1.19,-3.00,-37.62,-1.07,-1.29,0.67,-1.51,-4.39,8.53,0.60,-0.21,-0.13,0.76,12
1474583,-1.31,-5.64,9.32,0.60,0.36,-0.50,2.31,-2.19,-34.31,0.46,-0.63,0.51,-1.47,-4.40,8.54,0.60,-0.21,-0.13,0.76,12
1474623,-2.81,-5.76,8.32,0.69,0.25,-0.57,3.69,-3.56,-32.62,-1.36,-1.57,-0.32,-1.45,-4.19,8.65,0.62,-0.20,-0.12,0.75,12
1474663,-2.54,-5.38,8.48,0.87,-0.07,-0.14,6.75,-5.88,-28.44,-1.06,-1.39,-0.27,-1.48,-3.98,8.74,0.62,-0.19,-0.11,0.75,12
1474703,-2.04,-4.64,8.18,0.93,-0.50,-0.53,10.81,-4.81,-25.81,-0.67,-0.99,-0.74,-1.37,-3.66,8.91,0.63,-0.17,-0.10,0.75,12
1474743,0.14,-3.19,8.10,0.39,-0.22,-1.20,12.56,-6.00,-22.31,0.36,-0.43,-0.98,-1.13,-3.41,9.04,0.65,-0.16,-0.10,0.74,12
1474783,0.03,-3.92,8.32,0.58,-0.52,-1.43,16.00,-4.25,-21.94,0.93,-0.58,-0.78,-0.90,-3.34,9.10,0.66,-0.15,-0.10,0.73,12
1474823,0.41,-4.03,8.55,0.52,-0.82,-2.11,17.62,-4.50,-19.88,0.84,-0.87,-0.64,-0.43,-3.16,9.20,0.69,-0.12,-0.10,0.70,12
1474863,0.79,-2.96,8.21,0.35,-0.85,-1.44,15.31,-3.75,-21.00,0.68,0.05,-1.05,0.12,-3.01,9.26,0.72,-0.10,-0.11,0.68,12
1474903,1.60,-2.12,7.14,-0.46,0.21,-1.53,15.81,-3.56,-18.00,0.83,0.54,-1.59,0.50,-2.92,9.27,0.73,-0.09,-0.12,0.66,12
1474943,0.60,-1.89,6.95,-1.28,0.54,-1.65,16.38,-4.38,-19.38,0.05,1.29,-2.23,0.55,-3.18,9.18,0.76,-0.11,-0.13,0.63,12
1474983,0.26,-2.77,7.64,0.07,-0.30,-1.22,17.44,-1.38,-17.88,-0.36,0.79,-1.39,0.62,-3.55,9.02,0.77,-0.12,-0.14,0.61,12
1475023,1.02,-4.49,9.39,0.70,0.48,-1.32,18.44,-0.44,-18.25,0.16,-1.12,0.32,0.87,-3.38,9.07,0.79,-0.11,-0.14,0.59,12
1475063,-0.01,-2.16,9.32,-0.01,0.38,-0.63,17.25,-0.25,-17.31,-0.40,0.22,0.57,0.85,-3.18,9.13,0.80,-0.11,-0.13,0.57,12
1475103,0.30,-3.80,11.08,1.15,0.49,-0.34,18.69,0.12,-17.12,-0.52,-0.75,1.91,0.82,-3.05,9.17,0.81,-0.10,-0.12,0.57,12
1475143,-0.12,-3.07,11.58,0.70,0.82,-0.15,19.19,-0.19,-16.31,-0.77,-0.41,2.27,0.64,-2.66,9.30,0.82,-0.09,-0.10,0.56,12
1475183,0.18,-1.35,9.51,0.78,0.11,-0.33,22.50,-0.56,-14.81,-0.23,1.07,0.13,0.41,-2.42,9.38,0.82,-0.09,-0.08,0.56,12
1475223,0.14,-1.16,10.47,1.01,-0.11,-0.18,23.56,-1.38,-13.19,-0.27,0.43,0.36,0.45,-2.05,9.46,0.83,-0.07,-0.07,0.56,12
1475263,0.14,-0.12,9.78,-0.03,0.26,-0.21,21.88,-2.94,-14.00,-0.32,1.63,0.25,0.46,-1.76,9.52,0.83,-0.06,-0.07,0.55,12
1475303,-0.55,-0.59,8.86,-0.84,-0.32,-0.33,23.62,-2.81,-14.56,-0.98,1.25,-0.64,0.43,-1.84,9.50,0.83,-0.07,-0.07,0.55,12
1475343,-0.51,-1.70,9.51,-1.15,0.20,-0.10,23.62,-2.81,-14.56,-1.06,0.48,0.09,0.55,-2.17,9.42,0.83,-0.08,-0.09,0.54,12
1475383,-0.70,-2.31,8.52,-1.24,0.65,0.43,26.25,-0.12,-11.44,-0.53,0.40,0.23,0.37,-2.63,9.32,0.83,-0.11,-0.09,0.54,12
1475423,-0.70,-2.42,8.18,-1.07,0.36,0.47,28.44,0.69,-11.94,-0.83,0.61,-1.03,0.13,-3.03,9.20,0.82,-0.13,-0.09,0.55,12
1475463,-0.43,-2.77,9.82,-0.99,0.86,0.10,28.31,1.81,-10.94,-0.32,0.63,0.75,-0.12,-3.40,9.06,0.82,-0.16,-0.09,0.55,12
1475503,-2.39,-4.26,10.58,0.05,-0.37,0.22,32.06,1.75,-9.69,-2.21,-0.82,1.53,-0.18,-3.44,9.05,0.82,-0.15,-0.09,0.55,12
1475543,0.79,-3.80,9.09,-0.32,-0.40,0.00,32.50,1.44,-9.62,-0.16,-0.61,1.69,-0.08,-3.46,9.05,0.81,-0.15,-0.10,0.55,12
1475583,0.14,-4.00,9.29,-0.23,0.22,-0.48,29.00,2.06,-9.75,0.09,-0.41,0.29,0.05,-3.59,8.99,0.81,-0.16,-0.11,0.55,12
1475624,-0.70,-3.38,8.02,-0.13,-0.11,-0.13,30.56,4.06,-12.19,-0.78,0.27,-0.97,0.08,-3.65,8.98,0.82,-0.16,-0.11,0.54,12
1475664,0.98,-4.15,9.29,0.15,0.35,0.71,28.88,3.62,-11.62,0.94,-0.48,0.31,0.05,-3.67,8.97,0.81,-0.16,-0.11,0.55,12
1475705,-0.24,-3.50,8.90,0.24,0.04,0.79,31.75,3.50,-10.19,-0.27,0.06,-0.41,-0.16,-3.59,9.00,0.81,-0.16,-0.10,0.56,12
1475744,0.91,-3.57,9.43,-0.01,-0.05,-0.03,33.06,3.94,-10.81,1.17,-0.04,0.41,-0.26,-3.53,9.02,0.80,-0.16,-0.10,0.57,12
1475784,0.03,-3.84,9.13,-0.03,-0.05,0.06,31.69,3.62,-13.50,0.27,-0.29,0.11,-0.24,-3.55,9.02,0.80,-0.16,-0.10,0.57,12
1475825,-0.12,-3.61,8.94,-0.03,0.22,0.09,30.75,3.56,-13.56,0.14,-0.05,-0.08,-0.27,-3.55,9.02,0.80,-0.16,-0.10,0.57,12
1475865,-0.82,-3.46,8.97,-0.01,-0.00,-0.03,31.06,4.12,-12.12,0.18,0.14,-0.00,-0.34,-3.55,9.02,0.80,-0.16,-0.09,0.57,12
1475905,-0.20,-3.61,9.28,-0.10,-0.04,-0.04,31.81,4.19,-13.12,-0.49,0.12,-0.04,-0.33,-3.58,9.01,0.80,-0.16,-0.10,0.57,12
1475944,-0.12,-3.61,8.94,-0.12,0.04,0.04,30.62,3.50,-12.19,0.20,-0.01,-0.05,-0.32,-3.60,8.99,0.80,-0.17,-0.10,0.57,12
1475985,-0.09,-3.73,9.09,-0.23,0.13,0.20,32.81,3.94,-12.31,0.26,-0.08,0.11,-0.34,-3.65,8.98,0.80,-0.17,-0.10,0.57,12
1476026,0.07,-4.19,9.66,-0.45,0.36,-0.01,33.06,4.56,-11.19,0.41,-0.30,0.84,-0.42,-3.77,8.94,0.80,-0.18,-0.10,0.57,12
1476065,-0.39,-3.73,8.32,-0.35,0.24,-0.25,31.12,3.50,-11.44,0.59,-0.27,0.80,-0.52,-3.92,8.86,0.80,-0.19,-0.10,0.56,12
1476105,-0.70,-3.57,8.06,-0.11,-0.15,-0.02,30.38,3.50,-12.94,-0.17,0.45,-0.76,-0.53,-4.02,8.81,0.80,-0.19,-0.10,0.56,12
1476145,0.03,-3.80,8.44,0.03,-0.09,-0.20,30.12,4.38,-13.00,0.50,0.25,-0.37,-0.47,-4.05,8.80,0.80,-0.19,-0.10,0.56,12
1476186,-0.01,-4.07,9.55,-0.11,0.20,-0.32,30.31,3.69,-11.12,0.57,0.17,-0.18,-0.42,-4.05,8.81,0.80,-0.19,-0.10,0.56,12
1476225,-0.24,-4.03,9.09,-0.21,0.31,-0.31,29.75,3.69,-11.94,0.43,0.04,0.76,-0.45,-4.11,8.79,0.81,-0.19,-0.10,0.55,12
1476265,-1.01,-4.00,8.44,-0.13,0.12,-0.00,31.00,3.19,-11.75,-0.50,0.18,-0.31,-0.51,-4.17,8.75,0.81,-0.20,-0.10,0.54,12
1476305,-1.89,-4.00,8.40,-0.00,0.02,-0.05,32.44,3.62,-11.56,-1.36,0.19,-0.34,-0.53,-4.19,8.74,0.81,-0.20,-0.10,0.55,12
1476347,-0.82,-4.11,8.59,-0.07,-0.32,-0.24,31.50,2.62,-11.25,-0.78,0.13,0.20,-0.49,-4.20,8.74,0.81,-0.20,-0.10,0.54,12
1476384,-0.01,-4.22,8.59,-0.03,-0.39,-0.13,33.00,4.25,-11.56,-0.49,0.11,-0.15,-0.33,-4.22,8.74,0.81,-0.19,-0.11,0.54,12
1476425,0.30,-4.30,9.09,-0.04,0.04,-0.07,30.94,4.12,-12.88,0.53,-0.07,0.36,-0.23,-4.23,8.73,0.81,-0.19,-0.11,0.54,12
1476465,-0.28,-4.26,8.67,-0.06,-0.03,-0.03,30.38,4.12,-13.31,-0.05,-0.01,-0.06,-0.23,-4.25,8.73,0.81,-0.19,-0.12,0.54,12
1476507,-0.05,-4.34,8.59,-0.04,-0.06,0.02,30.31,4.31,-11.88,0.20,-0.07,-0.13,-0.21,-4.27,8.72,0.81,-0.19,-0.12,0.54,12
1476545,-0.12,-4.26,8.67,0.02,-0.12,0.05,29.88,4.88,-12.00,0.14,-0.06,-0.13,-0.19,-4.28,8.72,0.81,-0.19,-0.12,0.54,12
1476585,-0.01,-4.30,8.86,-0.08,0.03,0.07,30.56,4.06,-12.19,0.16,-0.02,0.14,-0.17,-4.28,8.72,0.81,-0.19,-0.12,0.54,12
1476625,-0.09,-4.26,8.67,-0.02,0.04,0.04,30.31,4.56,-11.94,0.11,0.04,-0.04,-0.20,-4.30,8.71,0.81,-0.20,-0.12,0.54,12
1476667,-0.43,-4.26,8.63,-0.04,-0.18,-0.06,30.81,4.31,-11.06,-0.16,0.04,-0.04,-0.20,-4.30,8.70,0.81,-0.20,-0.12,0.54,12
1476706,0.03,-4.26,8.79,-0.00,-0.15,-0.06,31.38,4.62,-10.69,-0.32,0.05,-0.07,-0.12,-4.31,8.70,0.81,-0.19,-0.12,0.54,12
1476746,0.11,-4.34,8.97,-0.09,0.00,0.06,31.12,5.00,-12.50,0.18,-0.00,0.28,-0.07,-4.34,8.70,0.81,-0.19,-0.13,0.54,12
1476786,-0.09,-4.68,9.32,-0.21,0.08,0.03,31.75,5.31,-11.75,-0.01,-0.29,0.66,-0.08,-4.39,8.66,0.81,-0.20,-0.13,0.54,12
1476826,0.03,-4.45,8.48,-0.04,-0.06,-0.05,29.00,4.44,-11.31,0.13,-0.01,-0.16,-0.10,-4.45,8.64,0.81,-0.20,-0.13,0.54,12
1476866,-0.20,-4.49,8.94,-0.29,-0.11,-0.08,28.94,5.00,-9.50,-0.15,0.17,-0.34,-0.05,-4.47,8.62,0.81,-0.20,-0.13,0.54,12
1476906,0.11,-4.64,8.75,-0.18,-0.03,-0.15,29.75,4.88,-12.75,0.13,-0.09,0.17,-0.02,-4.55,8.58,0.81,-0.20,-0.13,0.54,12
1476946,-0.20,-4.61,8.29,-0.22,-0.15,-0.14,28.00,4.44,-12.56,-0.23,0.00,-0.26,0.03,-4.61,8.55,0.81,-0.20,-0.14,0.53,12
1476986,-0.28,-4.80,8.63,0.04,-0.34,-0.03,29.56,6.06,-12.06,-0.39,-0.12,0.11,0.11,-4.68,8.52,0.81,-0.20,-0.14,0.53,12
1477026,0.18,-5.64,9.97,0.39,-0.06,-0.08,27.75,4.94,-11.50,-0.38,-0.70,0.73,0.21,-4.64,8.55,0.81,-0.20,-0.15,0.53,12
1477066,0.03,-5.07,8.97,0.46,0.00,0.08,26.50,4.94,-13.50,-0.21,-0.57,0.35,0.23,-4.49,8.62,0.81,-0.19,-0.14,0.54,12
1477106,-0.09,-4.84,8.74,0.49,0.33,0.62,25.38,5.12,-12.56,-0.26,-0.51,0.04,0.17,-4.33,8.71,0.81,-0.18,-0.13,0.54,12
1477146,-0.01,-4.49,8.40,0.17,0.28,0.54,26.81,2.88,-13.00,0.04,-0.29,-0.38,-0.05,-4.20,8.78,0.80,-0.19,-0.12,0.55,12
1477186,-0.43,-4.19,9.09,0.38,-0.03,0.04,26.50,2.50,-11.88,-0.16,0.02,-0.37,-0.20,-4.16,8.80,0.80,-0.19,-0.12,0.56,12
1477226,-1.08,-4.07,9.05,0.82,-0.64,0.29,27.62,2.69,-13.56,-0.94,-0.12,0.15,-0.14,-3.95,8.90,0.80,-0.17,-0.11,0.56,12
1477266,-1.16,-3.84,8.90,0.74,-0.65,0.72,25.00,1.88,-12.44,-1.21,-0.17,-0.12,0.05,-3.67,9.02,0.80,-0.15,-0.11,0.57,12
1477306,-0.59,-4.22,9.47,0.91,-0.33,1.01,23.62,0.38,-14.38,-0.72,-0.86,0.32,0.13,-3.36,9.15,0.79,-0.13,-0.11,0.59,12
1477346,0.45,-3.15,8.66,0.63,-0.44,0.81,23.75,0.62,-13.62,-0.03,-0.51,-0.48,0.13,-3.06,9.26,0.78,-0.12,-0.10,0.61,12
1477386,0.91,-3.30,8.82,0.59,-0.38,0.51,23.31,-1.62,-14.62,0.70,-0.46,-0.50,0.21,-2.84,9.32,0.77,-0.10,-0.10,0.62,12
1477426,1.29,-3.19,8.94,0.59,-0.24,0.44,21.56,-0.94,-15.25,1.02,-0.57,-0.45,0.27,-2.62,9.39,0.77,-0.09,-0.10,0.63,12
1477466,1.75,-2.50,8.44,0.24,-0.41,0.35,22.38,-2.06,-14.31,1.41,-0.04,-0.99,0.34,-2.46,9.43,0.76,-0.08,-0.10,0.64,12
1477506,3.82,-2.12,7.82,0.16,0.09,-0.21,22.44,-2.38,-14.00,2.43,0.07,-1.17,0.43,-2.38,9.45,0.76,-0.08,-0.10,0.64,12
1477546,2.98,-1.16,6.53,-0.89,0.42,-1.00,19.75,-3.00,-16.12,2.56,1.22,-2.91,0.41,-2.38,9.44,0.77,-0.08,-0.10,0.63,12
1477586,1.48,-2.35,6.83,-1.71,0.62,-1.23,21.00,-1.81,-14.94,1.11,0.46,-2.49,0.38,-2.81,9.32,0.78,-0.11,-0.11,0.61,12
1477626,0.49,-4.72,9.01,-0.61,1.13,-1.07,22.00,0.00,-15.56,0.28,-1.39,-0.13,0.21,-3.33,9.14,0.79,-0.14,-0.11,0.58,12
1477666,-0.85,-4.57,8.48,0.05,1.06,-0.36,26.12,1.44,-13.38,-0.24,-2.07,0.31,-0.04,-3.46,9.09,0.80,-0.15,-0.10,0.57,12
1477707,-1.12,-3.57,8.02,-0.51,0.64,-0.77,26.19,2.31,-13.38,-0.78,-0.09,-1.05,-0.34,-3.48,9.07,0.81,-0.16,-0.09,0.56,12
1477747,-1.73,-3.69,7.94,-0.90,-0.00,-0.98,27.31,3.25,-12.88,-1.29,0.03,-1.03,-0.45,-3.72,8.97,0.82,-0.18,-0.09,0.54,12
1477787,-1.70,-4.53,8.97,0.96,0.03,-0.48,29.75,4.31,-12.31,-1.32,-0.60,0.11,-0.38,-3.93,8.87,0.83,-0.18,-0.09,0.52,12
1477827,-1.20,-3.54,9.24,0.82,0.05,0.09,28.50,5.38,-12.50,-1.46,-1.67,1.33,-0.31,-3.55,9.02,0.83,-0.16,-0.08,0.52,12
1477867,-0.01,-2.42,9.13,-0.19,0.59,0.07,29.31,3.62,-11.62,0.42,0.97,0.05,-0.43,-3.39,9.08,0.83,-0.16,-0.07,0.52,12
1477907,-0.51,-3.00,10.09,-0.13,0.44,-0.28,29.62,3.69,-12.62,0.13,0.46,1.05,-0.64,-3.46,9.04,0.83,-0.17,-0.06,0.52,12
1477947,-1.24,-3.15,10.27,0.22,0.36,-0.32,31.06,4.12,-12.12,-0.50,0.37,1.29,-0.73,-3.52,8.99,0.84,-0.18,-0.06,0.51,12
1477987,-0.89,-2.58,7.90,0.59,0.04,-0.67,33.31,4.75,-10.12,-0.07,-0.27,1.05,-0.78,-3.34,9.07,0.84,-0.17,-0.05,0.51,12
1478629,-0.74,-3.15,9.01,0.12,-0.44,-0.02,33.38,4.50,-9.31,-0.23,0.13,-0.13,-0.62,-3.05,9.18,0.86,-0.16,-0.05,0.49,12
1478668,-0.55,-3.50,9.51,-0.01,-0.33,-0.06,33.38,5.38,-10.06,-0.07,-0.46,0.32,-0.48,-3.03,9.20,0.86,-0.15,-0.06,0.49,12
1478707,-0.20,-2.96,9.25,0.06,-0.04,-0.01,32.25,4.44,-10.56,0.20,0.05,0.04,-0.40,-3.01,9.20,0.86,-0.15,-0.06,0.49,12
1478747,-0.36,-2.92,9.29,0.04,-0.14,-0.01,33.38,4.75,-9.69,0.01,0.07,0.07,-0.37,-2.99,9.21,0.86,-0.15,-0.06,0.49,12
1478791,-0.28,-2.96,9.36,0.12,-0.07,-0.06,32.06,5.38,-12.44,-0.11,-0.03,-0.09,-0.33,-2.97,9.22,0.86,-0.14,-0.06,0.49,12
1478828,-0.43,-2.84,9.21,0.12,-0.13,-0.09,32.81,5.00,-10.56,-0.15,0.09,-0.03,-0.28,-2.93,9.23,0.86,-0.14,-0.06,0.49,12
1478867,-0.20,-2.84,9.29,0.12,-0.11,-0.10,33.38,5.69,-10.50,0.03,0.03,0.02,-0.23,-2.88,9.26,0.86,-0.14,-0.06,0.49,12
1478908,-0.28,-2.88,9.32,0.09,-0.11,-0.06,31.56,4.69,-12.44,-0.09,-0.05,0.05,-0.19,-2.84,9.27,0.86,-0.13,-0.06,0.49,12
1478947,0.03,-2.80,9.39,0.06,-0.00,0.01,31.56,4.69,-12.44,0.18,0.01,0.12,-0.16,-2.81,9.27,0.86,-0.13,-0.07,0.49,12
1478990,-0.43,-2.73,9.32,0.05,-0.12,-0.02,31.38,5.56,-11.44,-0.29,0.07,0.04,-0.14,-2.80,9.28,0.86,-0.13,-0.07,0.49,12
1479028,-0.20,-2.65,9.39,0.01,-0.14,-0.04,30.00,3.94,-10.44,-0.11,0.12,0.11,-0.09,-2.77,9.29,0.86,-0.13,-0.07,0.49,12
1479068,0.14,-2.50,9.43,0.28,0.02,0.12,29.75,4.31,-12.31,0.21,0.24,0.14,-0.07,-2.74,9.30,0.86,-0.13,-0.07,0.49,12
1479112,0.18,-2.69,10.27,-0.09,-0.06,0.03,29.50,3.44,-13.06,0.07,1.04,-0.93,-0.01,-2.77,9.29,0.86,-0.13,-0.07,0.49,12
1479150,-0.16,-2.27,9.13,-0.03,-0.13,-0.03,32.81,4.00,-12.62,-0.18,0.54,-0.15,0.02,-2.81,9.28,0.86,-0.13,-0.07,0.49,12
1479188,-0.24,-2.46,9.32,-0.04,-0.20,-0.01,30.06,4.81,-10.88,-0.32,0.36,0.04,0.08,-2.82,9.28,0.86,-0.13,-0.08,0.49,12
1479228,-0.20,-2.65,9.32,-0.02,-0.27,0.05,30.19,3.44,-11.88,-0.38,0.17,0.05,0.17,-2.82,9.27,0.86,-0.12,-0.08,0.49,12
1479271,0.60,-2.84,9.25,-0.01,-0.21,0.14,30.19,4.06,-12.25,-0.11,-0.02,0.09,0.25,-2.83,9.27,0.86,-0.12,-0.09,0.49,12
1479310,0.49,-2.96,9.29,0.00,-0.12,0.21,29.38,4.50,-12.00,0.19,-0.13,0.02,0.30,-2.83,9.27,0.86,-0.12,-0.09,0.49,12
1479348,0.45,-2.88,9.28,0.04,-0.08,0.27,30.31,4.00,-11.50,0.14,-0.05,0.02,0.30,-2.84,9.27,0.85,-0.12,-0.09,0.50,12
1479388,0.56,-2.80,9.36,0.15,0.22,0.28,29.69,4.31,-12.69,0.27,0.02,0.09,0.29,-2.82,9.27,0.85,-0.12,-0.09,0.50,12
1479431,-0.05,-2.58,8.86,0.25,0.04,0.38,30.00,3.44,-13.00,0.64,-0.26,0.09,0.19,-2.70,9.30,0.85,-0.12,-0.08,0.51,12
1479471,-0.32,-3.00,9.55,-0.05,-0.13,0.14,29.19,3.38,-12.31,-0.19,0.14,-0.45,0.14,-2.72,9.30,0.85,-0.12,-0.08,0.51,12
1479508,-0.05,-2.54,9.21,-0.11,-0.33,0.11,29.75,3.69,-11.94,-0.25,0.20,-0.09,0.20,-2.74,9.30,0.84,-0.12,-0.08,0.52,12
1479548,0.45,-2.54,9.12,-0.28,-0.19,0.15,28.75,4.50,-13.19,0.17,0.27,-0.14,0.28,-2.81,9.27,0.84,-0.12,-0.09,0.52,12
1479591,0.03,-3.27,9.12,-0.10,-0.23,0.13,27.44,4.12,-12.94,-0.21,-0.28,0.18,0.36,-2.88,9.25,0.84,-0.12,-0.10,0.52,12
1479631,0.30,-3.19,9.09,0.02,-0.27,0.15,26.75,2.94,-13.38,-0.40,-0.38,-0.12,0.43,-2.89,9.25,0.84,-0.12,-0.10,0.52,12
1479668,0.75,-3.15,9.21,-0.04,-0.23,0.20,28.56,3.88,-11.00,0.25,-0.27,-0.03,0.50,-2.88,9.23,0.84,-0.11,-0.10,0.53,12
1479708,0.75,-3.07,9.24,0.02,-0.01,0.21,27.38,3.56,-12.94,0.23,-0.18,0.01,0.52,-2.90,9.23,0.83,-0.11,-0.11,0.53,12
1479751,0.72,-2.31,9.39,-0.01,-0.15,0.23,26.81,2.88,-13.00,0.12,0.17,0.09,0.52,-2.90,9.23,0.83,-0.11,-0.11,0.53,12
1479791,0.64,-2.00,9.29,0.03,-0.29,0.06,27.25,3.88,-13.69,0.13,0.60,0.17,0.59,-2.91,9.23,0.83,-0.11,-0.11,0.54,12
1479829,0.26,-3.19,9.36,-0.05,-0.31,0.12,26.44,3.50,-13.00,-0.41,-0.28,0.14,0.66,-2.91,9.22,0.83,-0.11,-0.11,0.54,12
1479869,0.87,-3.65,9.16,0.01,0.19,0.01,26.38,3.19,-13.00,0.18,-0.73,-0.05,0.70,-2.92,9.21,0.83,-0.11,-0.11,0.54,12
1479912,0.26,-2.88,9.13,0.16,-0.40,0.12,23.00,1.75,-13.44,-0.68,-0.12,-0.25,0.71,-2.88,9.23,0.83,-0.11,-0.11,0.54,12
1479952,1.41,-2.88,9.59,0.01,-0.22,0.24,25.06,3.06,-13.19,-0.59,-0.03,-0.09,0.85,-2.85,9.22,0.82,-0.10,-0.12,0.55,12
1479989,1.14,-2.65,9.21,0.04,-0.15,0.21,25.38,2.81,-13.12,0.28,0.19,-0.02,0.86,-2.84,9.23,0.82,-0.10,-0.12,0.55,12
1480029,0.53,-2.84,9.21,-0.00,-0.29,0.12,25.31,2.25,-13.12,-0.42,0.00,-0.02,0.95,-2.84,9.22,0.82,-0.10,-0.13,0.55,12
1480073,0.98,-3.80,8.97,0.01,0.06,0.01,23.81,1.88,-14.00,-0.07,-0.49,-0.05,0.98,-2.85,9.21,0.82,-0.10,-0.13,0.55,12
1480112,0.45,-4.15,8.75,-0.03,0.26,-0.19,24.19,1.62,-14.38,0.05,-0.96,-0.25,0.94,-2.84,9.22,0.82,-0.10,-0.12,0.55,12
1480149,0.56,-3.23,8.25,0.22,-0.18,-0.13,24.81,2.12,-11.00,-0.39,-0.44,-1.00,0.95,-2.79,9.24,0.82,-0.09,-0.12,0.55,12
1480189,1.71,-3.04,9.29,-0.12,0.44,0.11,25.94,2.81,-12.69,0.79,-0.25,0.05,0.92,-2.79,9.23,0.82,-0.09,-0.12,0.55,12
1480231,1.87,-2.65,9.81,-0.03,0.58,0.27,25.56,3.06,-12.44,1.20,0.18,0.57,0.67,-2.84,9.24,0.82,-0.10,-0.11,0.55,12
1480268,0.41,-2.61,10.01,-0.07,0.17,0.13,27.38,3.56,-12.94,-0.10,0.24,0.76,0.51,-2.85,9.25,0.82,-0.11,-0.11,0.55,12
1480309,0.26,-2.80,9.47,-0.19,-0.02,0.04,25.19,2.75,-12.06,-0.21,0.09,0.23,0.47,-2.90,9.24,0.82,-0.11,-0.11,0.56,12
1480349,0.26,-3.11,9.09,-0.12,0.02,-0.00,26.88,2.88,-12.62,-0.21,-0.15,-0.13,0.47,-2.96,9.22,0.82,-0.11,-0.11,0.55,12
1480391,0.45,-3.15,8.90,-0.08,-0.03,0.08,25.88,3.75,-13.88,-0.02,-0.16,-0.30,0.47,-2.99,9.20,0.82,-0.12,-0.11,0.56,12
1480428,0.79,-3.19,8.94,-0.06,0.16,0.14,27.69,2.44,-12.81,0.36,-0.17,-0.26,0.43,-3.02,9.20,0.82,-0.12,-0.11,0.56,12
1480469,0.07,-3.23,9.59,0.04,0.14,0.14,25.75,3.31,-11.31,-0.28,-0.21,0.38,0.34,-3.02,9.21,0.81,-0.12,-0.10,0.56,12
1480509,0.03,-3.07,9.43,0.02,0.05,0.06,26.94,3.19,-12.25,-0.29,-0.05,0.22,0.31,-3.02,9.21,0.81,-0.12,-0.10,0.56,12
1480551,0.26,-2.80,8.82,0.02,-0.00,0.06,27.19,4.06,-11.50,-0.06,0.22,-0.39,0.32,-3.02,9.21,0.81,-0.12,-0.10,0.56,12
1480588,0.56,-2.92,9.47,-0.11,-0.02,0.04,27.12,2.06,-13.25,0.24,0.11,0.27,0.32,-3.03,9.20,0.81,-0.12,-0.10,0.56,12
1480629,0.45,-2.96,9.32,-0.17,0.00,0.02,27.38,3.44,-10.06,0.12,0.12,0.13,0.33,-3.08,9.19,0.81,-0.12,-0.11,0.56,12
1480669,0.14,-3.07,9.05,-0.07,-0.03,-0.08,26.81,4.12,-13.75,-0.18,0.05,-0.12,0.32,-3.12,9.17,0.81,-0.12,-0.11,0.56,12
1480711,0.07,-3.34,8.97,-0.22,-0.04,-0.09,24.81,3.31,-12.12,-0.29,-0.19,-0.18,0.36,-3.16,9.16,0.81,-0.12,-0.11,0.56,12
1480749,0.37,-3.73,9.82,0.08,0.02,0.08,26.00,1.94,-11.56,0.07,-0.61,0.64,0.30,-3.12,9.18,0.81,-0.12,-0.11,0.56,12
1480790,0.60,-2.88,9.25,0.09,-0.08,0.06,25.81,2.38,-10.19,0.29,0.20,0.05,0.31,-3.08,9.19,0.81,-0.12,-0.11,0.57,12
1480830,0.53,-3.04,9.67,-0.02,0.07,0.10,27.00,3.19,-11.88,0.24,0.04,0.48,0.29,-3.07,9.19,0.81,-0.12,-0.10,0.57,12
1480872,0.26,-3.00,9.29,-0.08,0.04,0.04,26.94,3.50,-12.62,-0.01,0.09,0.09,0.27,-3.09,9.19,0.81,-0.12,-0.10,0.57,12
1480909,0.07,-3.04,9.12,-0.05,-0.11,-0.03,27.56,3.81,-11.81,-0.20,0.08,-0.05,0.27,-3.12,9.18,0.81,-0.12,-0.11,0.57,12
1480950,0.49,-3.27,9.12,-0.03,0.01,0.04,27.00,2.00,-11.12,0.20,-0.14,-0.04,0.29,-3.12,9.17,0.81,-0.12,-0.11,0.57,12
1480990,0.53,-3.11,9.21,-0.01,0.04,0.06,26.06,4.06,-12.75,0.26,0.03,0.02,0.27,-3.14,9.18,0.81,-0.13,-0.11,0.57,12
1481032,0.18,-3.07,9.21,0.02,-0.01,0.01,26.56,3.12,-11.94,-0.08,0.07,0.02,0.26,-3.14,9.18,0.81,-0.13,-0.11,0.57,12
1481070,0.18,-3.15,9.16,-0.00,0.01,0.03,28.25,3.62,-12.44,-0.09,-0.02,-0.02,0.27,-3.13,9.18,0.81,-0.13,-0.11,0.57,12
1481110,0.34,-3.15,9.17,-0.00,0.03,0.04,29.06,3.56,-10.50,0.08,-0.00,-0.01,0.26,-3.15,9.17,0.81,-0.13,-0.11,0.57,12
1481150,0.22,-3.15,9.17,-0.02,0.02,0.04,28.25,3.50,-10.31,-0.02,-0.00,-0.01,0.23,-3.15,9.17,0.80,-0.13,-0.10,0.57,12
1481192,0.18,-3.15,9.12,-0.02,-0.01,0.05,26.00,2.81,-12.38,-0.05,0.00,-0.04,0.23,-3.16,9.17,0.80,-0.13,-0.10,0.57,12
1481230,0.26,-3.15,9.21,-0.03,0.01,0.04,27.88,3.25,-12.12,0.03,0.01,0.03,0.23,-3.16,9.17,0.80,-0.13,-0.11,0.57,12
1481273,0.14,-3.15,9.13,-0.07,0.02,-0.01,29.06,3.88,-10.56,-0.12,-0.00,-0.03,0.27,-3.15,9.16,0.80,-0.13,-0.11,0.57,12
1481310,0.22,-3.19,8.55,0.36,-0.23,0.16,28.56,3.25,-10.56,-0.02,-0.10,-0.62,0.24,-3.09,9.17,0.80,-0.13,-0.10,0.57,12
1481350,0.30,-3.69,10.55,-0.07,0.51,0.06,26.88,2.56,-12.25,0.03,-0.57,1.38,0.27,-3.12,9.16,0.80,-0.13,-0.10,0.57,12
1481390,0.18,-2.46,8.71,0.13,-0.47,-0.01,27.44,3.19,-12.19,-0.04,0.65,-0.46,0.23,-3.11,9.17,0.80,-0.13,-0.10,0.57,12
1481430,0.76,-3.84,9.71,-0.00,0.17,0.04,27.81,4.31,-10.75,0.48,-0.73,0.53,0.27,-3.11,9.17,0.80,-0.13,-0.11,0.57,12
1481471,0.03,-3.11,8.98,0.08,0.05,-0.00,26.88,3.19,-12.94,-0.18,-0.02,-0.20,0.21,-3.09,9.17,0.80,-0.13,-0.10,0.57,12
1481510,-0.09,-2.54,9.13,-0.00,-0.16,0.01,25.50,3.38,-12.81,-0.32,0.55,-0.05,0.23,-3.09,9.18,0.80,-0.13,-0.10,0.57,12
1481551,0.41,-3.42,9.51,-0.04,0.16,0.00,28.69,2.69,-12.00,0.19,-0.32,0.34,0.23,-3.10,9.17,0.80,-0.13,-0.10,0.57,12
1481590,-0.16,-2.84,8.90,0.12,-0.10,0.02,26.69,3.44,-11.19,-0.36,0.23,-0.28,0.20,-3.08,9.18,0.80,-0.13,-0.10,0.57,12
1481631,0.30,-3.11,9.85,-0.13,0.00,0.04,28.19,3.81,-11.06,0.06,-0.03,0.68,0.23,-3.09,9.18,0.80,-0.12,-0.10,0.58,12
1481671,0.38,-3.27,9.12,0.04,0.07,-0.01,27.31,3.25,-12.88,0.18,-0.14,-0.04,0.20,-3.12,9.16,0.80,-0.13,-0.10,0.58,12
1481711,-0.01,-2.96,8.56,0.01,-0.14,0.03,27.38,2.94,-12.19,-0.23,0.13,-0.62,0.22,-3.09,9.17,0.80,-0.13,-0.10,0.58,12
1481751,0.45,-3.27,9.47,-0.10,0.11,0.00,28.12,4.12,-11.44,0.23,-0.14,0.30,0.22,-3.12,9.17,0.80,-0.13,-0.10,0.58,12
1481791,0.18,-3.04,8.59,0.07,0.00,0.01,27.19,3.75,-11.19,-0.02,0.09,-0.58,0.20,-3.12,9.17,0.80,-0.13,-0.10,0.58,12
1481832,0.07,-3.19,9.25,-0.00,-0.03,0.02,26.88,3.19,-12.94,-0.15,-0.08,0.06,0.22,-3.11,9.18,0.80,-0.13,-0.10,0.58,12
1481872,0.22,-3.27,9.66,-0.01,0.02,0.02,26.94,2.56,-11.81,0.01,-0.14,0.49,0.21,-3.12,9.17,0.80,-0.13,-0.10,0.58,12
1481912,0.18,-3.04,9.05,0.01,-0.02,0.02,27.75,3.19,-10.31,-0.02,0.09,-0.12,0.20,-3.12,9.17,0.80,-0.13,-0.10,0.58,12
1481952,0.11,-3.34,9.36,-0.01,-0.01,0.00,29.50,3.00,-10.12,-0.11,-0.22,0.19,0.21,-3.12,9.17,0.80,-0.13,-0.10,0.58,12
1481992,0.18,-3.11,9.21,0.02,0.02,0.00,25.12,3.06,-12.81,-0.02,0.00,0.04,0.20,-3.12,9.17,0.80,-0.13,-0.10,0.58,12
1482032,0.18,-3.00,8.98,0.01,-0.03,0.03,26.00,2.81,-12.38,-0.03,0.12,-0.20,0.21,-3.12,9.18,0.80,-0.13,-0.10,0.58,12
1482075,0.11,-3.27,9.21,-0.01,0.05,0.03,26.00,3.12,-12.38,-0.08,-0.15,0.04,0.19,-3.12,9.17,0.80,-0.13,-0.10,0.58,12
1482112,0.22,-3.07,9.09,-0.02,-0.02,0.08,25.69,2.44,-11.31,0.03,0.05,-0.08,0.19,-3.12,9.17,0.80,-0.13,-0.10,0.58,12
1482152,0.18,-3.34,9.55,-0.07,0.00,0.10,26.50,3.44,-12.69,0.02,-0.21,0.38,0.16,-3.13,9.17,0.80,-0.13,-0.10,0.58,12
1482191,0.38,-3.11,8.94,-0.08,0.08,0.06,26.50,3.44,-12.69,0.26,0.05,-0.22,0.12,-3.16,9.16,0.80,-0.13,-0.10,0.58,12
1482235,0.07,-3.11,8.98,-0.05,-0.05,0.02,28.06,3.56,-11.38,-0.03,0.06,-0.18,0.09,-3.17,9.16,0.79,-0.13,-0.10,0.58,12
1482272,0.18,-3.27,9.20,-0.02,-0.00,0.03,27.19,3.75,-11.50,0.08,-0.08,0.05,0.10,-3.19,9.16,0.79,-0.13,-0.10,0.59,12
1482312,0.03,-3.15,9.17,0.04,-0.01,0.01,24.81,2.69,-11.44,-0.07,0.02,0.00,0.09,-3.17,9.16,0.79,-0.13,-0.10,0.59,12
1482351,-0.01,-3.07,9.20,0.01,-0.02,0.01,24.81,2.69,-11.44,-0.12,0.09,0.04,0.11,-3.16,9.16,0.79,-0.13,-0.10,0.59,12
1482394,0.11,-3.23,9.16,0.03,0.04,0.02,26.12,2.81,-11.62,0.00,-0.07,0.00,0.10,-3.16,9.16,0.79,-0.13,-0.10,0.59,12
1482432,-0.05,-3.11,9.16,0.01,-0.02,0.01,27.94,3.75,-9.56,-0.13,0.04,0.00,0.09,-3.16,9.16,0.79,-0.13,-0.10,0.59,12
1482472,0.07,-3.19,9.25,-0.01,0.01,0.01,26.94,2.56,-11.81,-0.03,-0.04,0.07,0.09,-3.16,9.17,0.79,-0.13,-0.10,0.59,12
1482516,0.03,-3.15,9.21,0.01,-0.00,0.01,25.69,2.44,-11.31,0.02,-0.04,-0.04,0.09,-3.15,9.17,0.79,-0.13,-0.10,0.59,12
1482553,0.07,-3.23,9.16,-0.03,-0.02,0.04,26.56,3.75,-12.31,-0.02,-0.07,0.00,0.09,-3.16,9.16,0.79,-0.13,-0.10,0.59,12
1482592,0.14,-3.23,9.09,-0.02,0.04,0.04,26.06,2.50,-11.56,0.11,-0.05,-0.09,0.04,-3.17,9.18,0.79,-0.13,-0.10,0.59,12
1482632,-0.05,-3.15,9.12,-0.03,-0.01,0.03,27.19,2.81,-10.75,-0.08,0.04,-0.04,0.03,-3.19,9.17,0.79,-0.13,-0.10,0.59,12
1482676,0.07,-3.19,9.32,-0.05,-0.04,0.02,25.50,4.00,-13.56,-0.05,0.00,0.01,0.04,-3.20,9.16,0.79,-0.13,-0.10,0.59,12
1482714,0.03,-3.15,9.25,-0.04,-0.01,-0.01,27.62,3.50,-11.12,-0.02,0.07,0.08,0.05,-3.22,9.16,0.79,-0.13,-0.10,0.59,12
1482752,0.03,-3.15,9.13,-0.03,-0.06,-0.01,26.81,3.38,-10.44,-0.04,0.07,-0.04,0.06,-3.23,9.16,0.79,-0.13,-0.10,0.59,12
1482792,0.18,-3.34,9.21,0.00,0.03,0.01,27.44,3.56,-12.56,0.11,-0.12,0.04,0.08,-3.22,9.16,0.79,-0.13,-0.10,0.59,12
1482836,0.03,-3.23,9.02,0.03,0.01,0.00,29.50,3.31,-10.44,0.04,-0.05,-0.04,0.06,-3.21,9.17,0.79,-0.13,-0.10,0.59,12
1482876,0.07,-3.30,9.13,0.04,0.00,0.01,26.62,3.75,-11.94,-0.04,-0.02,-0.16,0.06,-3.20,9.17,0.79,-0.13,-0.10,0.59,12
1482913,0.07,-3.23,9.16,0.05,0.01,-0.00,25.56,3.25,-10.25,0.01,-0.03,0.00,0.05,-3.20,9.16,0.79,-0.13,-0.10,0.59,12
1482953,-0.01,-3.11,9.21,0.02,0.02,0.00,27.19,4.62,-11.88,-0.06,0.07,0.04,0.05,-3.19,9.16,0.79,-0.13,-0.10,0.59,12
1482997,0.03,-3.15,9.17,0.00,-0.01,-0.01,27.38,2.94,-12.19,0.01,-0.00,0.11,0.05,-3.19,9.17,0.79,-0.13,-0.10,0.59,12
1483037,0.03,-3.15,9.05,0.03,-0.02,-0.01,28.31,3.31,-12.12,-0.03,0.03,-0.00,0.05,-3.18,9.17,0.79,-0.13,-0.10,0.59,12
1483073,0.07,-3.27,9.21,0.02,-0.02,-0.00,27.44,3.69,-9.62,0.00,-0.10,0.04,0.06,-3.16,9.17,0.79,-0.13,-0.10,0.59,12
1483113,0.11,-3.23,9.24,0.01,0.01,-0.01,28.69,2.12,-11.56,0.04,-0.06,0.06,0.06,-3.16,9.18,0.79,-0.13,-0.10,0.59,12
1483157,0.11,-3.15,9.24,-0.00,-0.03,-0.00,28.00,3.25,-11.38,-0.04,0.05,-0.05,0.07,-3.16,9.18,0.79,-0.13,-0.10,0.59,12
1483197,0.07,-3.15,9.24,-0.02,0.01,-0.00,28.00,3.25,-11.75,0.03,0.02,0.07,0.08,-3.17,9.17,0.79,-0.13,-0.10,0.59,12
1483233,0.07,-3.15,9.12,-0.02,-0.02,-0.01,28.25,2.88,-9.94,-0.01,0.03,-0.05,0.08,-3.18,9.18,0.79,-0.13,-0.10,0.59,12
1483273,0.07,-3.23,9.09,-0.00,-0.01,-0.01,26.19,4.00,-12.00,-0.02,-0.05,-0.08,0.09,-3.18,9.17,0.79,-0.13,-0.10,0.59,12
1483317,0.11,-3.19,9.21,0.01,-0.02,0.00,26.69,3.75,-11.56,0.01,-0.01,-0.04,0.09,-3.18,9.17,0.79,-0.13,-0.10,0.59,12
1483357,0.11,-3.15,9.20,-0.01,0.01,0.00,27.81,2.62,-12.12,0.01,-0.00,0.04,0.09,-3.19,9.17,0.79,-0.13,-0.10,0.59,12
1483393,0.11,-3.19,9.17,0.00,-0.01,-0.00,27.25,3.44,-10.75,0.01,-0.00,-0.00,0.09,-3.19,9.17,0.79,-0.13,-0.10,0.59,12
1483433,0.11,-3.19,9.17,0.00,0.01,-0.01,28.44,3.56,-11.38,0.00,-0.01,0.00,0.10,-3.18,9.16,0.79,-0.13,-0.10,0.59,12
1483477,0.14,-3.27,9.05,0.02,-0.03,-0.00,26.69,3.12,-11.19,-0.00,-0.01,-0.08,0.11,-3.18,9.17,0.79,-0.13,-0.10,0.59,12
1483516,0.14,-3.19,9.24,0.03,0.02,0.01,26.56,3.12,-11.88,0.04,-0.09,-0.11,0.11,-3.18,9.16,0.79,-0.13,-0.10,0.59,12
1483553,0.03,-3.07,9.28,-0.02,-0.02,-0.01,27.69,3.50,-10.69,-0.08,0.11,0.12,0.11,-3.18,9.16,0.79,-0.13,-0.10,0.59,12
1483595,0.14,-3.19,9.20,-0.03,-0.02,-0.01,27.56,3.50,-11.81,0.03,-0.00,0.04,0.12,-3.19,9.16,0.79,-0.13,-0.10,0.59,12
1483637,0.11,-3.15,9.16,0.03,0.02,0.00,27.25,4.06,-11.19,0.02,-0.12,-0.11,0.12,-3.19,9.16,0.79,-0.13,-0.10,0.59,12
1483677,0.07,-3.07,9.40,-0.00,-0.01,-0.00,27.06,3.50,-11.88,-0.00,0.03,0.00,0.11,-3.18,9.16,0.79,-0.13,-0.10,0.59,12
1483715,0.14,-3.23,9.17,-0.03,-0.01,-0.01,26.88,2.75,-9.69,0.02,-0.05,-0.00,0.12,-3.18,9.17,0.79,-0.13,-0.10,0.59,12
1483756,0.18,-3.23,8.94,0.04,0.02,0.00,28.00,3.56,-11.75,0.06,-0.05,-0.23,0.12,-3.18,9.17,0.79,-0.13,-0.10,0.59,12
1483798,0.14,-3.19,9.40,0.01,0.01,0.01,26.31,3.69,-10.88,0.02,-0.02,-0.08,0.12,-3.17,9.17,0.79,-0.13,-0.10,0.59,12
1483837,0.07,-3.11,9.12,-0.00,0.02,-0.01,27.56,2.88,-11.06,0.03,-0.01,0.23,0.12,-3.18,9.16,0.79,-0.13,-0.10,0.59,12
1483876,0.14,-3.11,9.13,0.02,-0.02,0.01,27.25,3.12,-10.38,0.03,0.05,-0.04,0.12,-3.16,9.17,0.79,-0.13,-0.10,0.59,12
1483916,0.14,-3.27,9.24,0.00,0.03,0.01,27.12,2.88,-11.12,0.03,-0.10,0.07,0.12,-3.16,9.17,0.79,-0.13,-0.10,0.59,12
1483958,0.07,-3.11,9.12,0.00,-0.02,-0.00,26.94,2.31,-11.81,-0.04,-0.03,0.03,0.11,-3.16,9.18,0.79,-0.13,-0.10,0.59,12
1483998,0.18,-3.19,9.20,-0.01,-0.02,0.00,26.25,3.38,-11.25,-0.06,0.05,-0.05,0.12,-3.16,9.18,0.79,-0.13,-0.10,0.59,12
1484035,0.14,-3.19,9.16,-0.01,0.02,0.00,28.12,3.19,-10.62,0.03,-0.02,-0.01,0.12,-3.17,9.18,0.79,-0.13,-0.10,0.59,12
1484075,0.07,-3.11,9.12,-0.01,-0.03,0.00,27.12,4.62,-12.31,-0.06,0.07,-0.04,0.12,-3.18,9.17,0.79,-0.13,-0.10,0.59,12
1484119,0.18,-3.23,9.13,-0.02,-0.00,0.01,27.44,2.62,-11.75,0.02,-0.01,0.04,0.12,-3.18,9.17,0.79,-0.13,-0.10,0.59,12
1484158,0.11,-3.15,9.09,0.01,0.01,0.00,28.19,3.81,-11.06,0.06,-0.05,-0.04,0.12,-3.18,9.16,0.79,-0.13,-0.10,0.59,12
1484195,0.11,-3.15,9.24,-0.00,-0.03,0.00,27.94,3.75,-9.56,-0.03,0.03,0.08,0.13,-3.18,9.16,0.79,-0.13,-0.10,0.59,12
1484235,0.22,-3.23,9.21,0.01,0.04,0.01,28.50,3.56,-11.00,0.09,-0.05,0.04,0.13,-3.18,9.16,0.79,-0.13,-0.10,0.59,12
1484279,0.07,-3.15,9.20,0.03,0.01,0.01,27.06,3.81,-12.25,-0.01,-0.03,-0.08,0.12,-3.16,9.17,0.79,-0.13,-0.10,0.59,12
1484318,0.11,-3.19,9.25,0.01,0.01,0.01,25.94,2.81,-12.69,-0.05,0.02,0.04,0.12,-3.17,9.17,0.79,-0.13,-0.10,0.59,12
1484355,0.11,-3.15,9.12,0.02,0.02,0.02,27.62,2.88,-10.69,0.00,0.02,-0.04,0.10,-3.17,9.17,0.79,-0.13,-0.10,0.59,12
1484395,0.07,-3.11,9.20,0.00,0.00,0.01,27.44,2.62,-11.75,-0.04,0.04,0.04,0.10,-3.16,9.17,0.79,-0.13,-0.10,0.59,12
1484439,0.11,-3.19,9.13,0.00,0.00,0.01,26.06,2.50,-11.56,-0.03,-0.04,0.03,0.09,-3.16,9.18,0.79,-0.13,-0.10,0.59,12
1484478,0.03,-3.15,9.17,0.00,0.00,0.01,27.50,3.19,-11.81,0.01,-0.04,-0.05,0.09,-3.16,9.18,0.79,-0.13,-0.10,0.59,12
1484515,0.07,-3.11,9.24,-0.02,-0.02,0.00,25.38,2.69,-10.94,-0.02,0.05,0.06,0.09,-3.16,9.18,0.79,-0.13,-0.10,0.59,12
1484555,0.11,-3.15,9.24,-0.02,-0.02,0.01,26.62,3.44,-11.94,0.02,0.01,0.06,0.09,-3.16,9.18,0.79,-0.13,-0.10,0.59,12
1484597,0.11,-3.15,9.20,0.00,-0.02,0.02,28.00,3.25,-11.38,0.01,0.01,0.03,0.09,-3.16,9.18,0.79,-0.13,-0.10,0.59,12
1484634,0.14,-3.11,9.21,0.03,-0.04,0.00,29.31,3.31,-11.56,0.04,0.04,0.02,0.11,-3.16,9.19,0.79,-0.13,-0.10,0.59,12
1484675,0.07,-2.77,9.70,0.18,-0.09,-0.10,26.25,4.00,-11.62,-0.06,0.36,0.50,0.12,-3.12,9.20,0.79,-0.13,-0.10,0.59,12
1484715,-0.05,-2.88,9.55,0.08,-0.34,-0.14,26.94,2.56,-11.81,-0.29,0.20,0.32,0.24,-3.09,9.23,0.79,-0.12,-0.11,0.59,12
1484757,0.76,-2.96,9.71,-0.05,0.05,-0.11,25.44,1.62,-11.94,0.44,0.11,0.47,0.32,-3.07,9.23,0.79,-0.12,-0.11,0.59,12
1484794,0.83,-2.77,9.63,-0.28,-0.04,0.11,25.75,2.31,-13.44,0.55,0.37,0.41,0.28,-3.14,9.21,0.79,-0.12,-0.11,0.59,12
1484835,0.45,-3.61,9.79,0.02,0.19,-0.22,25.38,2.25,-12.75,0.11,-0.46,0.57,0.34,-3.15,9.21,0.79,-0.12,-0.11,0.58,12
1484875,-0.66,-2.96,9.97,-0.20,0.24,0.31,24.06,0.69,-14.69,-0.82,0.26,0.77,0.16,-3.22,9.20,0.79,-0.13,-0.11,0.58,12
1484917,-0.20,-3.11,10.05,-0.02,-0.26,0.01,25.88,1.75,-15.19,-0.35,0.10,0.84,0.15,-3.21,9.20,0.79,-0.13,-0.11,0.59,12
1484956,-0.58,-2.46,9.29,0.03,-0.38,0.42,24.00,1.62,-15.81,-0.82,0.75,0.08,0.24,-3.21,9.20,0.79,-0.13,-0.11,0.59,12
1484996,1.06,-2.61,9.93,0.24,-0.16,0.51,23.56,1.00,-15.06,0.79,0.54,0.70,0.27,-3.16,9.23,0.78,-0.12,-0.11,0.60,12
1485036,0.30,-2.65,9.66,-0.09,-0.21,0.17,25.31,1.12,-15.25,0.00,0.50,0.43,0.30,-3.15,9.23,0.78,-0.12,-0.11,0.61,12
1485076,-0.66,-3.46,10.32,0.59,-0.58,0.41,22.19,0.44,-17.38,-1.07,-0.43,1.04,0.41,-3.03,9.28,0.77,-0.11,-0.12,0.61,12
1485116,-0.89,-2.77,9.51,0.40,-0.57,0.93,22.31,-1.44,-15.12,-1.46,0.06,0.18,0.57,-2.83,9.34,0.77,-0.10,-0.12,0.62,12
1485156,0.18,-2.88,9.43,0.12,0.10,1.05,20.56,-1.56,-15.31,-0.35,-0.09,0.07,0.53,-2.80,9.36,0.75,-0.09,-0.12,0.64,12
1485196,-0.62,-2.96,9.40,0.47,-0.10,0.97,20.75,-2.06,-16.38,-1.01,-0.28,0.00,0.39,-2.68,9.40,0.74,-0.09,-0.11,0.66,12
1485236,-0.55,-2.58,8.90,0.12,-0.66,1.05,20.25,-1.81,-16.88,-0.95,-0.01,-0.53,0.40,-2.57,9.43,0.73,-0.09,-0.11,0.67,12
1485280,0.53,-2.39,9.32,-0.00,-0.35,1.12,18.31,-2.81,-17.38,-1.05,-0.02,-0.54,0.50,-2.56,9.44,0.71,-0.08,-0.11,0.69,12
1485316,-0.16,-3.07,9.85,0.19,-0.51,1.40,19.12,-5.12,-15.69,-0.68,-0.51,0.43,0.52,-2.56,9.43,0.69,-0.08,-0.12,0.71,12
1485356,-0.01,-2.84,9.63,0.37,-0.53,1.47,16.75,-4.12,-17.50,-0.57,-0.35,0.16,0.56,-2.49,9.46,0.67,-0.07,-0.12,0.73,12
1485396,-0.05,-2.08,9.20,0.21,0.02,1.46,15.38,-5.31,-19.38,-0.56,0.33,-0.28,0.52,-2.41,9.48,0.65,-0.06,-0.11,0.75,12
1485436,-1.04,-2.00,9.12,0.08,-0.42,1.59,15.44,-5.31,-19.06,-1.44,0.39,-0.36,0.40,-2.39,9.49,0.63,-0.06,-0.11,0.77,12
1485479,-0.81,-1.77,8.71,-0.19,-0.83,1.66,12.38,-5.88,-18.69,-1.31,0.63,-0.78,0.50,-2.41,9.48,0.60,-0.06,-0.12,0.79,12
1485516,-0.12,-1.62,7.64,-0.89,-0.81,2.05,13.06,-5.00,-17.56,-0.73,1.04,-1.78,0.61,-2.66,9.41,0.57,-0.05,-0.13,0.81,12
1485556,0.03,-2.50,7.75,-0.99,-1.21,2.34,8.88,-4.06,-19.94,-0.74,0.59,-1.52,0.77,-3.09,9.27,0.53,-0.05,-0.16,0.83,12
1485595,1.56,-3.42,8.36,-1.30,-0.61,1.83,8.88,-4.06,-19.94,0.74,0.12,-0.72,0.82,-3.54,9.09,0.49,-0.06,-0.19,0.85,12
1485639,1.25,-4.91,8.74,-1.09,-0.44,1.49,10.19,-1.06,-19.94,0.54,-0.85,-0.12,0.71,-4.06,8.87,0.45,-0.07,-0.21,0.86,12
1485676,1.33,-5.07,8.02,-0.74,-0.92,0.88,10.62,0.38,-18.12,0.57,-0.68,-0.68,0.76,-4.39,8.70,0.43,-0.07,-0.23,0.87,12
1485716,1.37,-5.72,6.87,-0.98,-1.09,0.75,9.69,1.25,-19.00,0.39,-1.02,-1.64,0.98,-4.70,8.51,0.41,-0.06,-0.25,0.87,12
1485754,2.10,-5.95,7.55,-0.99,-0.38,0.40,9.69,1.25,-19.00,0.98,-0.88,-0.71,1.12,-5.07,8.27,0.39,-0.06,-0.28,0.88,12
1485799,2.06,-5.72,7.71,-0.69,-0.12,0.07,10.62,4.50,-18.31,0.91,-0.34,-0.36,1.15,-5.38,8.07,0.39,-0.06,-0.29,0.87,12
1485836,2.02,-5.76,6.60,-0.23,0.25,-0.15,11.12,4.81,-18.69,0.88,-0.27,-1.38,1.14,-5.49,7.98,0.39,-0.07,-0.30,0.87,12
1485876,1.25,-5.57,5.38,-1.00,0.54,-0.72,10.81,7.12,-19.50,0.16,0.07,-2.50,1.09,-5.64,7.88,0.40,-0.08,-0.30,0.86,12
1487619,0.45,-7.13,6.52,-0.02,0.06,-0.01,12.75,19.19,-19.56,0.02,0.09,0.06,0.62,-7.27,6.42,0.39,-0.14,-0.39,0.83,12
1487663,0.41,-7.25,6.60,-0.00,-0.01,0.04,13.12,18.94,-19.12,-0.19,0.02,0.19,0.60,-7.27,6.41,0.39,-0.14,-0.39,0.83,12
1487701,0.72,-7.18,6.64,0.02,0.01,0.02,13.69,19.56,-18.75,0.12,0.09,0.22,0.59,-7.27,6.41,0.38,-0.14,-0.39,0.83,12
1487741,0.76,-7.13,6.56,-0.02,0.01,-0.03,15.38,18.19,-18.44,0.17,0.12,0.14,0.59,-7.26,6.42,0.38,-0.14,-0.39,0.83,12
1487783,0.45,-7.17,6.56,-0.01,-0.01,0.01,14.31,18.19,-19.31,-0.14,0.09,0.10,0.59,-7.27,6.42,0.38,-0.14,-0.39,0.83,12
1487823,0.61,-7.17,6.56,0.00,-0.02,0.00,14.38,18.44,-18.94,0.01,0.09,0.14,0.59,-7.27,6.42,0.38,-0.14,-0.39,0.83,12
1487862,0.68,-7.21,6.48,0.01,0.00,0.00,14.88,18.81,-19.25,0.09,-0.04,-0.05,0.59,-7.17,6.54,0.38,-0.14,-0.39,0.83,12
1487902,0.68,-7.20,6.45,0.00,0.01,0.01,12.25,18.88,-19.25,0.10,-0.03,-0.09,0.58,-7.17,6.54,0.38,-0.14,-0.39,0.83,12
1487944,0.56,-7.21,6.53,0.01,0.03,0.03,14.94,19.06,-18.94,0.02,-0.07,-0.04,0.58,-7.17,6.53,0.38,-0.14,-0.39,0.83,12
1487984,0.71,-7.21,6.53,0.01,0.00,-0.05,12.88,18.38,-20.25,0.14,-0.02,0.00,0.57,-7.18,6.52,0.38,-0.14,-0.39,0.83,12
1488022,0.56,-7.09,6.57,0.02,0.02,-0.00,15.12,19.31,-18.19,-0.02,0.09,0.04,0.59,-7.18,6.53,0.39,-0.14,-0.38,0.83,12
1488062,0.52,-7.05,6.57,-0.01,0.02,-0.00,13.44,18.38,-19.44,-0.06,0.13,0.04,0.59,-7.18,6.53,0.39,-0.14,-0.38,0.83,12
1488105,0.41,-7.17,6.61,-0.00,-0.02,0.03,14.38,18.44,-18.94,-0.24,0.04,-0.00,0.57,-7.16,6.53,0.39,-0.14,-0.38,0.83,12
1488144,0.64,-7.12,6.61,0.02,-0.00,-0.01,13.56,17.75,-17.94,0.07,0.04,0.06,0.56,-7.16,6.55,0.39,-0.14,-0.38,0.83,12
1488182,0.52,-7.12,6.49,-0.04,-0.01,-0.03,13.19,20.44,-19.88,-0.04,0.03,-0.06,0.56,-7.16,6.55,0.39,-0.14,-0.38,0.83,12
1488222,0.41,-7.20,6.53,-0.00,-0.02,0.02,13.88,17.81,-19.00,-0.16,-0.05,-0.02,0.56,-7.16,6.55,0.39,-0.14,-0.38,0.83,12
1488264,0.60,-7.16,6.57,-0.01,-0.02,-0.03,13.12,18.69,-19.12,-0.03,-0.01,0.07,0.55,-7.16,6.54,0.39,-0.14,-0.38,0.83,12
1488304,0.48,-7.12,6.49,-0.01,-0.01,-0.00,13.56,19.88,-19.50,-0.07,0.04,-0.06,0.55,-7.16,6.55,0.39,-0.14,-0.38,0.83,12
1488342,0.68,-7.24,6.53,0.01,-0.03,0.01,14.50,18.75,-18.56,0.12,-0.09,-0.02,0.55,-7.16,6.55,0.39,-0.14,-0.38,0.83,12
1488382,0.75,-7.21,6.49,0.00,0.02,-0.00,14.69,19.62,-18.25,0.19,-0.04,-0.06,0.56,-7.16,6.55,0.39,-0.14,-0.38,0.83,12
1488424,0.56,-7.21,6.53,-0.00,0.01,0.02,13.56,19.88,-19.50,-0.01,-0.00,-0.09,0.57,-7.16,6.54,0.39,-0.14,-0.38,0.83,12
1488464,0.60,-7.20,6.57,0.01,0.01,0.01,14.00,18.75,-19.06,0.00,-0.04,-0.00,0.56,-7.16,6.53,0.39,-0.14,-0.38,0.83,12
1488502,0.52,-7.20,6.53,-0.00,0.02,0.01,13.50,18.69,-19.06,-0.04,-0.03,0.00,0.56,-7.17,6.52,0.39,-0.14,-0.38,0.83,12
1488542,0.48,-7.16,6.53,-0.00,-0.01,-0.03,13.19,18.31,-18.38,-0.07,0.01,-0.00,0.55,-7.18,6.53,0.39,-0.14,-0.38,0.83,12
1488584,0.64,-7.21,6.53,0.01,-0.00,0.02,13.19,19.19,-19.19,-0.08,0.05,-0.00,0.56,-7.18,6.53,0.39,-0.14,-0.38,0.83,12
1488625,0.68,-7.12,6.49,-0.01,0.03,-0.02,14.50,19.00,-19.00,0.08,-0.02,-0.00,0.55,-7.18,6.53,0.39,-0.14,-0.38,0.83,12
1488663,0.48,-7.13,6.57,-0.01,-0.03,-0.01,14.81,18.50,-19.25,-0.08,0.04,0.04,0.56,-7.17,6.52,0.39,-0.14,-0.38,0.83,12
1488703,0.52,-7.17,6.57,0.00,0.01,-0.01,13.12,19.50,-19.50,-0.05,0.00,0.04,0.57,-7.17,6.53,0.39,-0.14,-0.38,0.83,12
1488745,0.52,-7.16,6.49,-0.02,-0.06,-0.04,14.38,17.81,-18.56,-0.05,0.12,-0.00,0.58,-7.17,6.53,0.39,-0.14,-0.38,0.83,12
1488785,0.60,-7.28,6.57,-0.02,0.02,-0.02,13.56,20.19,-19.88,-0.06,-0.00,-0.03,0.59,-7.16,6.52,0.39,-0.14,-0.38,0.83,12
1488823,0.52,-7.16,6.53,0.01,-0.04,0.01,14.00,18.44,-18.69,-0.06,0.00,0.00,0.59,-7.17,6.52,0.39,-0.14,-0.38,0.83,12
1488863,0.71,-7.25,6.49,0.00,0.01,0.01,13.44,18.38,-19.06,0.13,-0.07,-0.03,0.59,-7.17,6.52,0.39,-0.14,-0.38,0.83,12
1488906,0.71,-7.25,6.49,0.00,0.02,0.00,13.62,18.94,-18.31,0.14,-0.02,-0.06,0.58,-7.18,6.52,0.39,-0.14,-0.38,0.83,12
1488945,0.52,-7.24,6.53,-0.01,0.03,0.01,13.25,17.69,-17.56,0.12,-0.06,-0.03,0.59,-7.18,6.52,0.39,-0.14,-0.38,0.83,12
1488983,0.48,-7.17,6.61,0.02,0.01,0.03,12.75,19.19,-19.56,-0.09,0.02,0.09,0.58,-7.19,6.52,0.39,-0.14,-0.38,0.83,12
1489023,0.60,-7.05,6.53,-0.01,-0.01,-0.03,13.88,18.44,-19.38,0.01,0.14,0.00,0.59,-7.19,6.52,0.39,-0.14,-0.38,0.83,12
1489065,0.56,-7.24,6.57,-0.02,0.02,0.02,13.56,18.06,-18.31,-0.06,0.02,-0.10,0.59,-7.19,6.52,0.39,-0.14,-0.38,0.83,12
1489105,0.52,-7.21,6.61,0.01,-0.00,-0.01,13.44,19.88,-20.25,-0.01,-0.05,0.06,0.57,-7.19,6.51,0.39,-0.14,-0.38,0.83,12
1489143,0.48,-7.16,6.53,-0.01,-0.00,-0.00,14.25,17.88,-19.31,-0.09,0.03,0.01,0.57,-7.20,6.52,0.39,-0.14,-0.38,0.83,12
1489183,0.56,-7.13,6.49,-0.01,-0.02,-0.01,14.62,19.62,-18.62,-0.01,0.06,-0.03,0.57,-7.19,6.52,0.39,-0.14,-0.38,0.83,12
1489225,0.68,-7.24,6.49,0.00,-0.00,0.01,14.50,19.00,-19.00,-0.01,-0.02,-0.06,0.57,-7.19,6.52,0.39,-0.14,-0.38,0.83,12
1489265,0.71,-7.17,6.49,0.00,0.00,-0.00,15.06,18.44,-17.81,0.11,-0.05,-0.03,0.56,-7.19,6.52,0.39,-0.14,-0.38,0.83,12
1489303,0.60,-7.24,6.57,0.00,0.01,0.01,13.06,18.94,-19.50,0.03,-0.05,0.06,0.57,-7.19,6.51,0.39,-0.14,-0.38,0.83,12
1489343,0.56,-7.17,6.49,0.03,0.01,-0.00,15.19,19.00,-17.38,-0.01,0.02,-0.03,0.57,-7.19,6.52,0.39,-0.14,-0.38,0.83,12
1489385,0.56,-7.17,6.49,-0.02,-0.01,0.01,14.50,19.00,-19.00,-0.05,0.05,-0.10,0.58,-7.18,6.52,0.39,-0.14,-0.38,0.83,12
1489425,0.68,-7.25,6.57,0.00,0.01,-0.00,13.69,18.06,-17.56,-0.01,0.01,-0.02,0.57,-7.18,6.51,0.39,-0.14,-0.38,0.83,12
1489463,0.64,-7.25,6.53,0.01,0.01,-0.00,12.62,18.31,-19.50,0.05,-0.06,0.02,0.59,-7.18,6.51,0.39,-0.14,-0.38,0.83,12
1489503,0.56,-7.17,6.49,0.01,0.01,0.02,13.69,20.44,-19.12,-0.02,0.01,-0.02,0.58,-7.18,6.51,0.39,-0.14,-0.38,0.83,12
1489545,0.52,-7.12,6.53,-0.01,0.02,-0.03,14.69,19.62,-18.25,0.01,0.02,-0.02,0.59,-7.19,6.51,0.39,-0.14,-0.38,0.83,12
1489585,0.37,-7.13,6.61,-0.02,-0.01,-0.02,14.19,19.56,-18.31,-0.07,0.06,0.02,0.59,-7.19,6.51,0.39,-0.14,-0.38,0.83,12
1489624,0.56,-7.28,6.57,0.01,-0.02,0.01,13.81,18.12,-19.38,-0.02,-0.10,0.06,0.59,-7.18,6.51,0.39,-0.14,-0.38,0.83,12
1489664,0.71,-7.21,6.49,0.00,0.01,-0.02,13.88,19.00,-19.81,0.14,-0.02,-0.04,0.58,-7.18,6.52,0.39,-0.14,-0.38,0.83,12
1489704,0.60,-7.13,6.49,-0.02,-0.00,-0.01,12.81,18.88,-18.81,0.01,0.05,-0.03,0.59,-7.18,6.52,0.39,-0.14,-0.38,0.83,12
1489746,0.52,-7.20,6.53,0.01,-0.02,0.01,13.19,18.31,-18.38,-0.10,-0.02,0.06,0.59,-7.18,6.51,0.39,-0.14,-0.38,0.83,12
1489784,0.64,-7.21,6.49,0.02,-0.01,0.03,13.81,18.75,-20.12,0.06,-0.02,-0.04,0.58,-7.18,6.52,0.39,-0.14,-0.38,0.83,12
1489824,0.75,-7.17,6.53,0.02,0.02,-0.01,13.06,18.69,-19.50,0.18,0.01,0.00,0.57,-7.18,6.52,0.39,-0.14,-0.38,0.83,12
1489864,0.56,-7.21,6.49,0.00,0.01,0.01,15.62,19.69,-18.12,-0.02,-0.02,-0.04,0.58,-7.18,6.53,0.39,-0.14,-0.38,0.83,12
1489906,0.37,-7.17,6.61,0.01,-0.01,0.05,14.56,19.00,-18.56,-0.27,-0.06,-0.04,0.56,-7.18,6.53,0.39,-0.14,-0.38,0.83,12
1489944,0.68,-7.24,6.53,0.01,-0.03,0.04,13.94,18.44,-19.00,0.14,-0.05,-0.00,0.54,-7.19,6.53,0.38,-0.14,-0.38,0.83,12
1489984,0.79,-7.24,6.49,0.04,0.04,0.06,13.19,19.50,-19.19,0.26,-0.06,-0.04,0.53,-7.18,6.53,0.38,-0.14,-0.38,0.83,12
1490024,0.64,-7.17,6.45,-0.02,-0.02,-0.02,13.50,18.69,-19.06,0.10,0.02,-0.08,0.54,-7.19,6.53,0.38,-0.14,-0.38,0.83,12
1490066,0.56,-7.09,6.49,-0.01,0.02,-0.03,13.44,18.94,-19.81,0.15,0.14,0.00,0.56,-7.19,6.52,0.38,-0.14,-0.38,0.83,12
1490104,0.56,-7.09,6.49,-0.01,-0.03,-0.02,13.62,19.25,-18.69,-0.02,0.09,-0.03,0.58,-7.18,6.52,0.38,-0.14,-0.38,0.83,12
1490144,0.71,-7.29,6.53,-0.03,0.01,-0.05,13.06,17.75,-18.69,0.11,-0.11,0.02,0.60,-7.17,6.51,0.39,-0.14,-0.38,0.83,12
1490184,0.52,-7.36,6.61,0.06,0.03,0.03,14.12,19.56,-18.62,-0.08,-0.18,0.09,0.60,-7.18,6.52,0.39,-0.14,-0.38,0.83,12
1490226,0.68,-7.05,6.76,0.06,-0.05,-0.07,13.94,18.75,-19.38,-0.01,0.08,0.18,0.61,-7.17,6.54,0.39,-0.14,-0.38,0.83,12
1490264,0.71,-7.05,6.87,0.29,-0.33,-0.20,12.81,17.69,-18.06,0.03,0.06,0.25,0.69,-7.11,6.62,0.39,-0.14,-0.38,0.83,12
1490304,1.06,-6.71,6.95,0.06,-0.38,-0.50,12.19,18.62,-19.56,0.20,0.36,0.30,0.86,-7.06,6.65,0.39,-0.13,-0.38,0.83,12
1490344,1.06,-7.29,6.26,0.26,-0.01,-0.21,10.75,16.94,-18.94,0.02,-0.29,-0.43,1.04,-6.99,6.70,0.40,-0.12,-0.38,0.83,12
1490386,0.79,-6.86,6.03,0.01,-0.10,0.05,8.75,17.50,-20.69,-0.76,-0.02,-0.97,1.05,-6.95,6.73,0.40,-0.12,-0.38,0.83,12
1490424,1.10,-6.98,6.30,-0.25,0.08,0.09,11.19,17.94,-19.69,0.05,0.01,-0.40,1.05,-6.98,6.70,0.40,-0.12,-0.38,0.83,12
1490464,0.95,-6.98,6.38,-0.30,0.23,0.21,9.56,18.94,-19.62,-0.02,0.09,-0.25,0.96,-7.07,6.62,0.39,-0.12,-0.38,0.83,12
1490504,0.75,-6.94,6.41,-0.36,0.22,0.18,9.56,18.94,-19.62,-0.08,0.23,-0.12,0.84,-7.16,6.54,0.39,-0.13,-0.38,0.83,12
1490546,1.02,-8.01,8.10,0.09,-0.01,-0.01,10.06,19.88,-19.94,-0.12,0.10,0.32,0.80,-7.19,6.52,0.39,-0.13,-0.38,0.83,12
1490584,0.79,-7.21,6.61,-0.02,0.11,-0.05,12.88,21.62,-20.38,-0.02,-0.01,0.10,0.80,-7.20,6.51,0.39,-0.13,-0.39,0.82,12
1490625,0.48,-6.90,5.99,0.02,-0.10,-0.03,11.50,19.69,-19.00,-0.33,0.30,-0.51,0.81,-7.20,6.50,0.39,-0.13,-0.39,0.82,12
1490666,0.95,-7.25,6.45,-0.01,0.05,-0.00,12.88,20.12,-19.25,0.14,-0.24,0.14,0.84,-7.20,6.50,0.39,-0.13,-0.39,0.82,12
1490707,0.83,-7.20,6.41,0.02,-0.02,0.02,11.12,20.81,-19.50,0.12,-0.05,-0.05,0.83,-7.20,6.50,0.39,-0.13,-0.39,0.82,12
1490746,0.83,-7.24,6.41,0.00,-0.01,0.05,12.69,18.62,-19.56,0.01,-0.05,-0.09,0.82,-7.20,6.50,0.39,-0.13,-0.39,0.82,12
1490786,0.75,-7.25,6.49,0.01,0.01,0.04,11.81,20.38,-20.50,-0.06,-0.05,-0.02,0.81,-7.20,6.51,0.39,-0.13,-0.39,0.83,12
1490826,0.71,-7.21,6.49,0.00,-0.00,0.02,11.81,20.38,-20.50,-0.08,-0.01,-0.02,0.80,-7.20,6.51,0.39,-0.13,-0.39,0.83,12
1490868,0.75,-7.25,6.49,0.00,0.00,0.01,11.69,19.12,-20.44,-0.07,0.06,-0.03,0.79,-7.19,6.52,0.39,-0.13,-0.39,0.83,12
1490906,0.75,-7.25,6.49,-0.00,0.02,0.02,10.81,19.38,-20.12,-0.03,-0.05,-0.03,0.78,-7.19,6.52,0.39,-0.13,-0.38,0.83,12
1490946,0.68,-7.13,6.61,-0.02,0.03,-0.03,12.38,19.44,-19.25,-0.09,0.07,0.10,0.77,-7.20,6.51,0.39,-0.13,-0.38,0.83,12
1490988,0.83,-7.24,6.45,-0.03,-0.05,-0.06,10.69,19.69,-21.31,-0.22,0.07,-0.01,0.78,-7.20,6.50,0.39,-0.13,-0.39,0.83,12
1491028,0.95,-7.21,6.53,-0.02,0.00,-0.03,11.44,19.69,-19.38,0.05,-0.02,-0.04,0.78,-7.23,6.49,0.39,-0.13,-0.39,0.82,12
1491067,0.79,-7.20,6.41,-0.02,0.00,-0.01,13.25,20.69,-20.00,-0.01,0.02,-0.07,0.80,-7.23,6.48,0.39,-0.13,-0.39,0.82,12
1491106,0.75,-7.21,6.38,0.01,-0.02,-0.01,12.00,19.69,-18.94,-0.05,0.02,-0.10,0.80,-7.23,6.48,0.39,-0.13,-0.39,0.82,12
1491146,0.95,-7.21,6.49,0.02,0.02,0.03,12.19,20.12,-20.75,0.14,0.02,0.01,0.80,-7.22,6.48,0.39,-0.13,-0.39,0.82,12
1491188,0.87,-7.24,6.41,0.04,0.04,0.07,13.00,20.50,-21.00,0.11,-0.10,-0.07,0.80,-7.22,6.48,0.39,-0.13,-0.39,0.82,12
1491227,0.71,-7.17,6.49,0.05,0.02,0.07,10.94,19.00,-19.00,-0.06,0.04,-0.00,0.77,-7.20,6.49,0.39,-0.13,-0.38,0.83,12
1491266,0.68,-7.21,6.57,0.01,0.05,0.05,12.25,20.38,-20.44,-0.07,0.00,0.07,0.75,-7.20,6.50,0.39,-0.14,-0.38,0.83,12
1491306,0.56,-7.13,6.64,-0.02,0.01,-0.01,11.75,19.75,-20.44,-0.16,0.07,0.14,0.73,-7.20,6.50,0.39,-0.14,-0.38,0.83,12
1491348,0.83,-7.16,6.53,-0.01,-0.04,-0.02,11.75,18.81,-19.69,-0.16,0.07,0.03,0.73,-7.20,6.50,0.39,-0.14,-0.38,0.83,12
1491388,0.87,-7.32,6.41,-0.01,0.01,0.04,11.81,19.75,-20.06,0.14,-0.12,-0.09,0.73,-7.20,6.51,0.39,-0.14,-0.38,0.83,12
1491426,0.75,-7.32,6.30,0.04,0.05,0.09,11.88,19.44,-19.31,0.05,-0.12,-0.21,0.70,-7.20,6.51,0.39,-0.14,-0.38,0.83,12
1491466,0.71,-7.13,6.49,0.06,0.03,0.09,12.31,19.75,-19.62,0.04,0.07,-0.02,0.67,-7.20,6.51,0.39,-0.14,-0.38,0.83,12
1491508,0.52,-7.12,6.49,0.05,0.07,0.11,14.25,21.06,-19.12,0.07,0.02,0.08,0.64,-7.19,6.52,0.39,-0.14,-0.38,0.83,12
1491548,0.29,-7.13,6.53,0.05,0.02,0.04,12.31,19.44,-19.62,-0.31,0.04,-0.00,0.60,-7.17,6.53,0.39,-0.14,-0.38,0.83,12
1491586,0.83,-7.01,6.49,-0.07,0.02,-0.36,12.31,20.06,-20.00,0.16,0.15,-0.04,0.66,-7.16,6.53,0.39,-0.14,-0.38,0.83,12
1491626,0.37,-7.24,6.84,0.03,0.07,0.04,11.56,18.88,-20.75,-0.30,-0.09,0.30,0.67,-7.16,6.54,0.39,-0.14,-0.38,0.83,12
1491668,0.48,-7.12,6.45,0.04,0.05,0.02,10.44,19.31,-20.19,0.03,-0.05,-0.09,0.65,-7.15,6.55,0.39,-0.14,-0.38,0.83,12
1491708,0.52,-7.12,6.64,0.02,-0.02,-0.01,10.50,19.00,-19.50,-0.12,0.01,0.09,0.65,-7.14,6.55,0.39,-0.14,-0.38,0.83,12
1491747,0.68,-7.13,6.61,-0.01,0.03,-0.00,11.12,20.25,-19.06,0.02,0.01,0.05,0.66,-7.14,6.55,0.39,-0.14,-0.38,0.83,12
1491787,0.52,-7.09,6.61,-0.02,-0.03,-0.04,12.44,20.62,-19.69,-0.13,0.06,0.06,0.66,-7.15,6.55,0.39,-0.14,-0.38,0.83,12
1491829,0.60,-7.12,6.61,-0.04,-0.03,-0.06,10.56,18.56,-20.88,-0.15,0.02,0.03,0.67,-7.15,6.54,0.39,-0.14,-0.38,0.83,12
1491869,0.71,-7.17,6.53,-0.04,-0.04,-0.07,13.19,19.50,-19.19,-0.11,0.04,0.08,0.70,-7.16,6.52,0.39,-0.14,-0.38,0.83,12
1491907,0.75,-7.21,6.41,-0.03,-0.03,-0.04,12.56,20.31,-18.56,0.03,-0.03,-0.10,0.73,-7.17,6.52,0.39,-0.14,-0.38,0.83,12
1491947,0.87,-7.20,6.49,0.00,0.02,0.01,10.62,20.25,-19.50,0.13,-0.03,-0.02,0.73,-7.17,6.51,0.39,-0.13,-0.38,0.83,12
1491989,0.68,-7.13,6.61,0.01,0.01,0.03,11.19,20.38,-21.25,0.26,-0.02,-0.04,0.57,-7.15,6.57,0.39,-0.14,-0.38,0.83,12
1492029,0.48,-7.09,6.84,-0.14,0.04,-0.05,11.62,19.19,-20.75,0.10,0.04,0.05,0.58,-7.16,6.55,0.39,-0.14,-0.38,0.83,12
1492067,0.14,-7.20,6.49,-0.23,-0.08,-0.19,11.44,19.69,-19.38,-0.48,0.01,-0.02,0.62,-7.21,6.51,0.39,-0.14,-0.39,0.82,12
1492107,0.48,-7.21,6.61,0.20,-0.17,0.45,12.38,20.31,-19.62,-0.17,0.04,0.13,0.66,-7.24,6.48,0.39,-0.14,-0.39,0.82,12
1492149,1.44,-7.09,5.99,-0.05,-0.02,-0.08,11.56,20.00,-19.00,0.30,0.01,-0.02,0.65,-7.21,6.51,0.39,-0.13,-0.39,0.83,12
1492189,0.83,-7.51,6.18,-0.01,-0.05,-0.04,11.38,20.56,-20.56,0.75,0.14,-0.49,0.69,-7.23,6.48,0.39,-0.13,-0.39,0.82,12
1492227,0.98,-7.51,6.38,-0.00,0.09,0.06,11.50,19.38,-19.00,0.30,-0.29,-0.12,0.68,-7.23,6.49,0.39,-0.13,-0.39,0.83,12
1492267,1.02,-7.20,6.41,-0.04,0.03,-0.04,11.50,19.69,-19.00,0.36,0.03,-0.07,0.66,-7.23,6.48,0.39,-0.14,-0.39,0.83,12
1492309,0.52,-7.24,6.49,-0.01,0.01,-0.05,12.56,20.88,-18.94,0.15,0.19,-0.02,0.68,-7.24,6.48,0.39,-0.14,-0.39,0.82,12
1492349,0.60,-7.32,6.49,-0.03,-0.07,-0.01,12.88,20.69,-19.62,-0.16,-0.01,0.02,0.69,-7.23,6.47,0.39,-0.14,-0.39,0.82,12
1492387,0.83,-7.12,6.45,-0.03,-0.02,-0.02,10.88,20.44,-18.44,0.12,0.11,-0.02,0.70,-7.24,6.47,0.39,-0.14,-0.39,0.82,12
1492427,0.79,-7.24,6.34,-0.00,-0.03,-0.01,11.06,19.62,-18.69,0.08,0.00,-0.12,0.71,-7.24,6.46,0.39,-0.14,-0.39,0.82,12
1492469,0.83,-7.36,6.34,0.01,0.01,0.01,10.69,19.94,-19.12,0.12,-0.15,-0.09,0.71,-7.24,6.46,0.39,-0.14,-0.39,0.82,12
1492509,0.83,-7.24,6.41,0.02,-0.00,0.01,11.50,19.69,-19.00,0.12,-0.12,-0.13,0.71,-7.24,6.47,0.39,-0.14,-0.39,0.82,12
1492547,0.95,-7.29,6.41,0.03,0.01,0.05,11.62,19.62,-18.31,0.24,-0.05,-0.06,0.70,-7.23,6.48,0.39,-0.14,-0.39,0.83,12
1492587,1.17,-7.97,6.11,-0.06,0.17,0.26,12.12,21.19,-19.00,0.44,-0.68,-0.29,0.73,-7.30,6.39,0.39,-0.14,-0.39,0.83,12
1492629,1.67,-8.20,7.52,0.22,0.19,-0.03,11.06,18.69,-18.31,0.92,-1.26,0.61,0.63,-7.29,6.41,0.39,-0.14,-0.38,0.83,12
1492669,0.75,-7.13,6.72,0.53,0.19,-0.53,11.56,19.69,-18.62,0.99,-1.02,0.99,0.68,-7.18,6.53,0.39,-0.14,-0.38,0.83,12
1492708,-0.13,-6.40,5.99,0.33,-0.13,-0.37,8.62,17.38,-18.56,-0.93,0.64,-0.69,0.80,-7.04,6.68,0.40,-0.13,-0.37,0.83,12
1492748,0.37,-6.40,6.22,0.15,0.12,-0.16,8.94,16.25,-18.81,-0.54,0.57,-0.51,0.91,-6.97,6.73,0.41,-0.13,-0.37,0.83,12
1492790,0.02,-6.02,6.03,-0.13,0.23,0.06,9.19,17.06,-17.69,-0.49,0.91,-0.68,0.86,-6.96,6.75,0.41,-0.13,-0.37,0.82,12
1492830,0.33,-6.40,6.56,-0.29,0.02,0.10,9.19,18.00,-18.50,-0.78,1.02,-0.66,0.80,-7.03,6.69,0.41,-0.14,-0.37,0.82,12
1492868,0.56,-6.86,6.84,-0.23,0.08,0.15,8.31,17.94,-18.19,-0.19,0.24,0.22,0.75,-7.10,6.62,0.41,-0.14,-0.37,0.82,12
1492908,0.64,-7.32,6.95,-0.21,0.07,0.12,10.56,17.50,-17.94,-0.06,-0.16,0.40,0.70,-7.16,6.55,0.40,-0.14,-0.38,0.82,12
1492948,0.71,-7.39,7.10,0.07,-0.06,0.02,10.31,18.62,-17.62,0.04,-0.21,0.57,0.67,-7.18,6.53,0.40,-0.15,-0.38,0.82,12
1492990,0.68,-7.21,6.26,-0.04,-0.07,0.08,9.50,20.00,-18.19,-0.12,-0.07,0.07,0.68,-7.17,6.54,0.40,-0.14,-0.38,0.82,12
1493028,0.91,-7.16,6.38,-0.09,0.07,0.07,12.44,18.81,-18.12,0.25,0.03,-0.14,0.66,-7.20,6.52,0.40,-0.15,-0.38,0.82,12
1493068,0.79,-7.24,6.53,-0.09,-0.03,0.02,10.69,18.44,-17.94,0.16,-0.02,0.04,0.62,-7.22,6.49,0.40,-0.15,-0.38,0.82,12
1493108,0.83,-7.39,6.72,-0.02,-0.02,-0.06,11.62,19.31,-17.88,0.18,-0.17,0.24,0.65,-7.23,6.48,0.40,-0.15,-0.38,0.82,12
1493150,0.64,-7.17,6.41,0.06,0.03,-0.01,10.75,19.56,-18.38,0.10,-0.29,0.20,0.66,-7.22,6.48,0.40,-0.15,-0.38,0.82,12
1493188,0.64,-6.98,6.26,-0.04,-0.00,0.01,9.19,19.81,-19.69,-0.02,0.23,-0.23,0.66,-7.21,6.49,0.40,-0.15,-0.38,0.82,12
1493229,0.75,-7.13,6.49,-0.02,0.05,-0.04,10.38,19.25,-17.69,0.11,0.10,0.00,0.65,-7.23,6.48,0.40,-0.15,-0.38,0.82,12
1493271,0.37,-7.24,6.64,-0.03,-0.01,-0.04,11.69,20.50,-18.69,-0.14,0.10,0.17,0.66,-7.23,6.48,0.40,-0.15,-0.38,0.82,12
1493311,0.41,-7.21,6.61,-0.01,-0.03,0.01,11.88,19.12,-18.94,-0.30,-0.01,0.18,0.66,-7.23,6.47,0.40,-0.15,-0.38,0.82,12
1493349,0.52,-7.32,6.49,-0.05,-0.09,-0.00,9.75,19.81,-19.25,-0.16,-0.08,0.03,0.69,-7.24,6.46,0.40,-0.15,-0.38,0.82,12
1493389,0.71,-7.39,6.49,0.02,0.01,0.06,11.44,20.44,-17.25,0.04,-0.18,-0.02,0.68,-7.22,6.51,0.40,-0.14,-0.38,0.82,12
1493429,0.91,-7.28,6.49,0.02,0.00,0.00,10.69,19.31,-18.75,0.23,-0.05,-0.03,0.67,-7.23,6.52,0.40,-0.15,-0.38,0.82,12
1493471,0.75,-7.13,6.34,-0.02,-0.00,-0.00,11.12,20.19,-19.06,0.17,0.14,-0.13,0.70,-7.23,6.51,0.40,-0.15,-0.38,0.82,12
1493509,0.64,-7.21,6.49,-0.03,0.05,-0.02,9.12,18.31,-18.88,-0.07,0.03,0.00,0.70,-7.23,6.48,0.40,-0.15,-0.38,0.82,12
1493549,0.41,-7.25,6.68,0.02,-0.05,0.00,11.06,19.31,-18.69,-0.30,-0.02,0.20,0.71,-7.23,6.48,0.40,-0.15,-0.38,0.82,12
1493589,0.45,-7.29,6.64,0.08,-0.04,0.03,11.62,19.62,-18.31,-0.26,-0.06,0.14,0.70,-7.22,6.50,0.40,-0.14,-0.38,0.82,12
1493631,0.64,-7.09,6.61,0.10,-0.15,-0.04,11.06,19.31,-18.69,-0.02,0.06,-0.12,0.70,-7.19,6.53,0.40,-0.14,-0.38,0.82,12
1493668,0.83,-7.12,6.64,0.16,-0.14,-0.03,11.12,19.94,-18.69,0.08,0.03,0.07,0.75,-7.16,6.57,0.40,-0.14,-0.38,0.82,12
1493709,0.87,-6.94,6.11,-0.03,-0.09,-0.02,10.56,18.12,-18.31,0.09,0.20,-0.48,0.77,-7.13,6.59,0.40,-0.14,-0.38,0.82,12
1493750,0.95,-7.17,6.18,-0.16,0.03,-0.03,10.56,19.94,-19.88,0.16,-0.01,-0.37,0.79,-7.16,6.55,0.40,-0.14,-0.38,0.82,12
1493791,0.71,-7.55,7.10,0.06,-0.05,-0.04,9.81,19.50,-18.50,0.18,-0.18,0.19,0.80,-7.18,6.53,0.40,-0.14,-0.38,0.82,12
1493830,0.98,-7.59,7.26,0.28,-0.11,-0.11,10.94,17.88,-18.25,0.12,-0.46,0.68,0.86,-7.13,6.58,0.40,-0.13,-0.38,0.82,12
1493870,0.95,-7.32,7.03,0.39,-0.08,-0.14,9.19,18.00,-18.50,0.03,-0.28,0.36,0.91,-7.04,6.66,0.40,-0.13,-0.38,0.82,12
1493910,0.83,-6.94,6.14,0.10,-0.11,-0.12,9.31,17.19,-19.88,-0.16,0.03,-0.59,0.99,-6.97,6.73,0.40,-0.12,-0.37,0.83,12
1493952,0.87,-6.44,6.03,-0.03,0.03,0.09,9.94,18.12,-19.50,-0.24,0.36,-0.98,0.99,-6.95,6.74,0.40,-0.12,-0.37,0.83,12
1493990,1.02,-6.59,6.11,-0.19,0.12,0.21,7.94,17.38,-20.06,0.10,0.40,-0.61,0.92,-6.99,6.72,0.40,-0.12,-0.37,0.83,12
1494030,1.06,-6.79,6.26,-0.20,0.19,0.21,9.12,18.56,-19.25,0.25,0.27,-0.40,0.81,-7.05,6.66,0.40,-0.13,-0.38,0.83,12
1494070,0.95,-7.01,6.68,-0.31,0.04,-0.03,9.12,18.56,-19.25,0.20,0.11,0.09,0.74,-7.12,6.59,0.40,-0.14,-0.38,0.82,12
1494112,0.75,-7.66,7.18,0.10,0.04,-0.02,10.75,19.88,-18.75,0.26,-0.70,0.97,0.76,-7.16,6.55,0.40,-0.14,-0.38,0.82,12
1494150,0.60,-6.98,6.38,0.04,0.04,0.02,11.00,18.69,-18.69,-0.14,0.15,-0.22,0.73,-7.12,6.59,0.40,-0.14,-0.38,0.82,12
1494190,0.60,-6.94,6.26,-0.16,0.06,0.01,9.31,19.81,-18.94,-0.14,0.21,-0.31,0.73,-7.15,6.57,0.40,-0.14,-0.38,0.82,12
1494230,0.64,-7.16,6.61,-0.06,0.02,0.01,9.31,19.81,-18.94,-0.07,0.01,0.07,0.71,-7.18,6.54,0.40,-0.14,-0.38,0.82,12
1494272,0.79,-7.16,6.45,-0.03,-0.03,0.02,10.69,19.94,-19.12,-0.08,-0.02,0.15,0.72,-7.19,6.53,0.40,-0.14,-0.38,0.82,12
1494311,0.91,-7.20,6.38,-0.05,0.03,0.00,11.00,19.62,-19.12,0.20,-0.02,-0.13,0.71,-7.19,6.51,0.40,-0.14,-0.38,0.82,12
1494350,0.83,-7.25,6.57,-0.02,0.02,-0.02,11.00,20.12,-17.31,0.12,-0.04,0.07,0.71,-7.20,6.50,0.40,-0.14,-0.38,0.82,12
1494390,0.68,-7.25,6.57,-0.01,0.01,0.02,10.31,19.56,-18.44,-0.03,-0.04,0.07,0.70,-7.20,6.49,0.40,-0.14,-0.38,0.82,12
1494432,0.83,-7.32,6.53,-0.00,0.03,0.05,10.62,20.25,-19.50,-0.09,-0.15,-0.11,0.69,-7.21,6.48,0.40,-0.14,-0.38,0.82,12
1494471,0.68,-7.09,6.53,0.05,0.04,-0.01,9.75,20.12,-19.25,0.01,0.12,0.03,0.66,-7.21,6.50,0.40,-0.14,-0.38,0.82,12
1494510,0.52,-7.12,6.49,-0.03,-0.08,-0.01,11.19,21.12,-19.12,-0.16,0.08,-0.00,0.68,-7.21,6.49,0.40,-0.14,-0.38,0.82,12
1494550,0.75,-7.47,7.53,0.21,-0.16,-0.11,10.62,19.31,-19.06,0.02,-0.25,1.05,0.73,-7.22,6.48,0.40,-0.14,-0.38,0.82,12
1494592,1.17,-7.43,7.33,0.62,-0.21,-0.25,9.12,18.31,-18.88,0.30,-0.70,1.29,0.84,-7.09,6.62,0.40,-0.13,-0.38,0.82,12
1494631,1.21,-7.05,7.37,0.67,0.10,-0.38,8.25,15.94,-19.62,0.26,-0.15,0.57,0.95,-6.90,6.80,0.41,-0.12,-0.37,0.83,12
1494670,0.75,-7.36,7.48,1.33,0.33,0.17,8.31,14.25,-20.94,-0.16,-0.72,0.42,0.91,-6.64,7.06,0.41,-0.12,-0.35,0.83,12
1494710,0.87,-7.59,7.56,2.76,0.19,0.32,7.88,10.12,-20.44,0.06,-1.57,-0.06,0.80,-6.02,7.62,0.41,-0.10,-0.31,0.85,12
1494752,0.45,-4.41,6.07,2.15,0.57,0.23,9.12,7.38,-21.56,0.44,-0.77,-1.72,0.62,-5.21,8.21,0.42,-0.09,-0.27,0.87,12
1494792,0.33,-4.91,8.06,1.70,0.40,0.14,8.69,3.88,-21.44,-0.07,-0.28,-0.51,0.41,-4.62,8.57,0.42,-0.09,-0.23,0.87,12
1494831,0.79,-5.14,8.94,3.05,0.12,-0.21,7.75,-0.88,-21.31,0.45,-1.36,-0.04,0.34,-3.77,8.98,0.42,-0.07,-0.19,0.88,12
1494871,1.02,-2.95,7.53,1.91,1.21,0.01,9.75,-2.75,-21.00,0.89,-0.14,-1.80,0.12,-2.81,9.33,0.43,-0.06,-0.13,0.89,12
1494913,-0.13,-3.11,9.66,2.40,0.21,-0.24,10.75,-5.06,-20.75,0.39,-0.30,-1.89,-0.17,-2.04,9.53,0.44,-0.05,-0.09,0.89,12
1496643,-1.70,-4.02,8.67,0.01,-0.04,-0.01,20.31,4.31,-23.69,-0.64,0.40,-0.12,-1.76,-4.02,8.67,0.48,-0.19,-0.14,0.85,12
1496681,-1.78,-4.06,8.64,0.01,-0.04,-0.01,18.62,4.56,-25.69,0.06,0.00,0.00,-1.74,-4.02,8.68,0.48,-0.19,-0.14,0.85,12
1496721,-1.66,-3.99,8.71,0.01,0.02,0.01,18.94,3.00,-22.69,-0.04,-0.04,-0.04,-1.75,-4.02,8.68,0.48,-0.18,-0.14,0.85,12
1496761,-1.78,-4.02,8.71,-0.01,0.00,0.00,20.81,3.88,-25.38,0.09,0.04,0.03,-1.75,-4.02,8.68,0.48,-0.19,-0.14,0.85,12
1496804,-1.70,-3.95,8.64,0.00,0.01,-0.00,20.50,3.81,-25.06,-0.03,0.00,0.03,-1.76,-4.02,8.68,0.48,-0.19,-0.14,0.85,12
1496841,-1.78,-4.02,8.68,0.01,-0.01,0.00,20.81,3.88,-25.38,0.06,0.07,-0.04,-1.73,-4.02,8.68,0.48,-0.19,-0.14,0.85,12
1496882,-1.74,-4.02,8.71,-0.01,0.03,0.01,18.69,4.25,-25.31,-0.04,-0.01,-0.01,-1.75,-4.02,8.68,0.48,-0.19,-0.14,0.85,12
1496922,-1.81,-3.95,8.59,0.01,-0.03,-0.01,20.75,3.88,-25.75,0.01,-0.01,0.03,-1.74,-4.01,8.67,0.48,-0.19,-0.14,0.85,12
1496962,-1.74,-3.99,8.71,-0.00,-0.03,-0.00,19.94,4.12,-25.88,-0.07,0.06,-0.07,-1.73,-4.01,8.67,0.48,-0.18,-0.14,0.85,12
1497002,-1.78,-3.99,8.64,0.00,0.02,0.01,20.62,5.31,-25.44,-0.00,0.02,0.04,-1.74,-4.01,8.67,0.48,-0.18,-0.14,0.85,12
1497042,-1.78,-4.02,8.63,0.01,-0.04,-0.01,19.19,3.38,-24.44,-0.04,0.02,-0.04,-1.73,-4.01,8.68,0.48,-0.18,-0.14,0.85,12
1497083,-1.70,-4.02,8.67,0.00,0.00,-0.01,17.81,3.44,-27.19,-0.05,-0.02,-0.04,-1.72,-4.01,8.68,0.48,-0.18,-0.14,0.85,12
1497123,-1.70,-3.99,8.71,0.00,-0.01,0.01,19.62,5.25,-26.00,0.02,-0.02,-0.01,-1.72,-4.00,8.68,0.48,-0.18,-0.14,0.85,12
1497163,-1.78,-3.99,8.64,0.01,-0.01,-0.00,19.88,4.38,-26.25,0.02,0.01,0.03,-1.71,-4.00,8.68,0.48,-0.18,-0.14,0.85,12
1497203,-1.74,-3.99,8.71,0.01,-0.04,-0.02,18.19,3.62,-25.00,-0.07,0.01,-0.05,-1.70,-3.99,8.68,0.48,-0.18,-0.14,0.85,12
1497243,-1.70,-4.02,8.67,0.01,-0.03,-0.01,19.44,5.00,-26.69,-0.04,0.00,0.03,-1.70,-3.99,8.69,0.48,-0.18,-0.14,0.85,12
1497283,-1.66,-4.02,8.71,-0.00,0.01,0.00,19.56,5.25,-26.31,0.00,-0.03,-0.02,-1.70,-3.99,8.69,0.48,-0.18,-0.14,0.85,12
1497323,-1.70,-3.99,8.71,0.00,-0.02,-0.01,19.56,5.25,-26.31,0.04,-0.03,0.02,-1.70,-3.99,8.69,0.48,-0.18,-0.14,0.85,12
1497363,-1.66,-3.99,8.67,0.00,-0.01,-0.00,18.62,4.00,-25.31,-0.00,0.00,0.02,-1.70,-3.99,8.69,0.48,-0.18,-0.14,0.85,12
1497403,-1.70,-3.99,8.68,0.00,-0.01,-0.00,19.75,4.44,-27.00,0.04,0.00,-0.02,-1.69,-3.99,8.69,0.48,-0.18,-0.14,0.85,12
1497443,-1.62,-3.99,8.67,0.01,0.00,0.01,19.38,5.00,-27.06,-0.01,0.00,-0.02,-1.69,-3.99,8.69,0.48,-0.18,-0.14,0.85,12
1497483,-1.74,-4.02,8.68,0.00,0.02,0.01,19.00,4.31,-26.00,0.07,0.00,-0.02,-1.69,-3.99,8.68,0.48,-0.18,-0.14,0.85,12
1497523,-1.81,-3.99,8.67,0.00,-0.02,-0.02,19.06,4.31,-25.62,-0.05,-0.03,-0.01,-1.68,-3.99,8.68,0.48,-0.18,-0.14,0.85,12
1497563,-1.62,-3.99,8.67,-0.00,-0.03,-0.02,18.75,4.38,-27.50,-0.13,0.00,-0.01,-1.68,-4.00,8.69,0.48,-0.18,-0.14,0.85,12
1497603,-1.62,-3.99,8.71,-0.01,0.01,-0.00,17.81,4.00,-27.56,0.06,0.01,-0.02,-1.68,-4.00,8.68,0.48,-0.18,-0.14,0.85,12
1497643,-1.62,-3.95,8.68,0.01,-0.03,-0.03,19.06,4.94,-26.38,0.06,0.01,0.03,-1.67,-4.00,8.69,0.48,-0.18,-0.14,0.85,12
1497683,-1.47,-4.02,8.71,0.01,0.02,0.02,19.31,5.19,-24.94,0.05,0.05,-0.02,-1.67,-3.98,8.69,0.48,-0.18,-0.14,0.85,12
1497723,-1.70,-4.02,8.67,0.01,0.07,0.03,19.88,4.69,-26.62,0.20,-0.04,0.02,-1.70,-3.99,8.68,0.48,-0.18,-0.14,0.85,12
1497763,-1.78,-3.99,8.67,0.00,0.01,-0.00,19.69,6.12,-26.00,-0.00,-0.03,-0.01,-1.70,-3.98,8.68,0.48,-0.18,-0.14,0.85,12
1497803,-1.74,-3.99,8.71,-0.00,0.02,0.02,19.31,4.69,-27.44,-0.07,-0.00,-0.01,-1.71,-3.98,8.68,0.48,-0.18,-0.14,0.85,12
1497843,-1.78,-3.99,8.60,-0.01,-0.02,-0.00,18.19,4.81,-25.75,-0.03,-0.00,0.03,-1.71,-3.98,8.68,0.48,-0.18,-0.14,0.85,12
1497883,-1.74,-4.02,8.63,0.01,-0.01,-0.01,19.56,5.56,-26.38,-0.07,-0.00,-0.08,-1.70,-3.99,8.68,0.48,-0.18,-0.14,0.85,12
1497923,-1.66,-3.99,8.79,-0.01,0.00,0.01,20.69,4.75,-26.94,-0.04,-0.03,-0.05,-1.70,-3.99,8.68,0.48,-0.18,-0.14,0.85,12
1497963,-1.74,-3.99,8.60,-0.00,-0.02,-0.00,20.62,4.81,-27.25,0.04,0.00,0.11,-1.70,-3.99,8.69,0.48,-0.18,-0.14,0.85,12
1498003,-1.70,-4.06,8.59,0.00,-0.02,-0.00,20.94,4.44,-25.00,-0.04,0.00,-0.09,-1.70,-3.98,8.69,0.48,-0.18,-0.14,0.85,12
1498043,-1.70,-3.99,8.71,0.01,0.01,-0.00,20.38,6.75,-25.25,-0.00,-0.08,-0.09,-1.70,-3.98,8.68,0.48,-0.18,-0.14,0.85,12
1498083,-1.66,-3.91,8.75,-0.00,-0.02,-0.00,21.00,4.75,-25.06,-0.00,-0.01,0.03,-1.70,-3.98,8.68,0.48,-0.18,-0.14,0.85,12
1498124,-1.70,-3.99,8.68,0.00,0.03,0.01,21.25,4.81,-26.12,0.04,0.07,0.07,-1.70,-3.98,8.69,0.48,-0.18,-0.14,0.85,12
1498164,-1.74,-3.99,8.67,0.00,-0.00,0.01,19.19,5.50,-26.00,-0.00,-0.01,-0.02,-1.70,-3.97,8.69,0.48,-0.18,-0.14,0.85,12
1498204,-1.74,-3.99,8.71,0.00,-0.01,-0.00,19.94,5.19,-23.75,-0.04,-0.02,-0.02,-1.70,-3.98,8.70,0.48,-0.18,-0.14,0.85,12
1498244,-1.74,-3.99,8.64,0.00,-0.03,-0.02,19.12,5.19,-26.06,-0.04,-0.01,0.02,-1.70,-3.98,8.70,0.48,-0.18,-0.14,0.85,12
1498284,-1.70,-3.95,8.71,-0.01,0.00,-0.00,19.94,4.38,-25.88,-0.04,-0.00,-0.06,-1.70,-3.98,8.69,0.48,-0.18,-0.14,0.85,12
1498324,-1.66,-3.99,8.71,-0.00,-0.02,-0.00,19.75,4.94,-24.88,-0.00,0.04,0.02,-1.69,-3.98,8.69,0.48,-0.18,-0.14,0.85,12
1498364,-1.70,-3.99,8.68,-0.00,-0.01,-0.00,19.81,6.06,-25.25,0.03,-0.00,0.02,-1.68,-3.98,8.69,0.48,-0.18,-0.14,0.85,12
1498404,-1.70,-3.99,8.68,-0.01,-0.01,0.00,18.94,4.31,-26.38,-0.02,-0.00,-0.02,-1.69,-3.98,8.69,0.48,-0.18,-0.14,0.85,12
1498444,-1.70,-3.99,8.68,0.00,0.02,0.01,19.94,5.62,-27.06,-0.01,-0.00,-0.02,-1.69,-3.98,8.69,0.48,-0.18,-0.14,0.85,12
1498484,-1.74,-3.99,8.67,0.00,-0.01,0.00,19.88,3.50,-25.88,-0.01,-0.00,-0.02,-1.68,-3.98,8.69,0.48,-0.18,-0.14,0.85,12
1498524,-1.66,-3.99,8.71,0.00,0.01,0.00,20.12,4.62,-25.12,-0.06,-0.00,-0.02,-1.69,-3.98,8.69,0.48,-0.18,-0.14,0.85,12
1498564,-1.70,-3.99,8.68,0.00,-0.01,0.00,20.00,5.31,-26.25,0.03,-0.00,0.02,-1.68,-3.98,8.69,0.48,-0.18,-0.14,0.85,12
1498604,-1.66,-3.99,8.67,0.00,0.00,0.00,19.81,3.81,-26.25,-0.02,-0.01,-0.02,-1.68,-3.98,8.69,0.48,-0.18,-0.14,0.85,12
1498644,-1.70,-3.99,8.68,0.00,-0.01,0.00,18.69,4.00,-24.94,0.02,-0.01,-0.02,-1.68,-3.98,8.69,0.48,-0.18,-0.14,0.85,12
1498684,-1.66,-3.99,8.71,0.00,0.01,0.02,18.31,4.81,-25.06,-0.02,-0.01,-0.02,-1.69,-3.98,8.68,0.48,-0.18,-0.14,0.85,12
1498724,-1.74,-4.02,8.71,0.00,0.02,0.01,20.81,4.75,-26.12,0.03,-0.00,0.03,-1.70,-3.98,8.68,0.48,-0.18,-0.14,0.85,12
1498764,-1.62,-3.95,8.71,-0.01,-0.05,-0.03,18.62,4.88,-26.06,-0.04,-0.04,0.03,-1.69,-3.98,8.69,0.48,-0.18,-0.14,0.85,12
1498804,-1.59,-4.02,8.71,0.00,0.01,0.01,18.44,4.00,-26.44,0.07,0.04,0.02,-1.70,-3.98,8.69,0.48,-0.18,-0.14,0.85,12
1498844,-1.74,-3.99,8.67,-0.00,0.01,0.00,19.62,5.56,-26.00,0.11,-0.04,0.02,-1.69,-3.98,8.70,0.48,-0.18,-0.14,0.85,12
1498884,-1.74,-3.95,8.71,-0.01,-0.04,-0.02,21.06,5.62,-25.44,-0.05,-0.00,-0.02,-1.67,-3.99,8.70,0.48,-0.18,-0.14,0.85,12
1498924,-1.59,-4.02,8.63,-0.00,-0.00,0.01,18.12,4.81,-26.12,-0.07,0.04,0.02,-1.67,-3.99,8.69,0.48,-0.18,-0.14,0.85,12
1498964,-1.74,-3.99,8.67,0.01,0.03,0.02,18.81,4.31,-27.12,0.09,-0.03,-0.05,-1.68,-3.98,8.69,0.48,-0.18,-0.14,0.85,12
1499004,-1.70,-3.99,8.71,0.00,-0.00,0.01,19.00,4.31,-26.00,-0.06,-0.00,-0.02,-1.68,-3.98,8.68,0.48,-0.18,-0.14,0.85,12
1499044,-1.66,-3.99,8.67,0.00,0.02,0.01,18.69,3.81,-27.44,-0.02,-0.00,0.03,-1.69,-3.98,8.68,0.48,-0.18,-0.14,0.85,12
1499084,-1.74,-3.99,8.71,0.00,0.00,-0.00,18.94,4.62,-26.75,0.03,-0.00,-0.01,-1.69,-3.98,8.68,0.48,-0.18,-0.14,0.85,12
1499125,-1.70,-3.95,8.64,0.00,-0.01,-0.01,19.06,4.94,-26.38,-0.05,-0.00,0.03,-1.69,-3.98,8.70,0.48,-0.18,-0.14,0.85,12
1499165,-2.46,-3.83,8.37,0.29,-0.27,-0.05,19.56,4.62,-25.56,-0.01,0.04,-0.06,-1.59,-3.90,8.74,0.48,-0.18,-0.14,0.85,12
1499205,-1.20,-4.02,8.90,0.26,-0.29,-0.04,15.94,3.00,-27.44,-0.87,0.07,-0.38,-1.48,-3.82,8.80,0.48,-0.17,-0.14,0.85,12
1499245,-1.43,-3.80,8.86,0.18,-0.04,-0.03,18.38,4.62,-27.19,0.28,-0.20,0.11,-1.45,-3.76,8.83,0.48,-0.17,-0.14,0.85,12
1499285,-1.24,-3.91,8.90,-0.01,-0.07,-0.03,18.81,3.44,-26.69,0.02,-0.04,0.04,-1.43,-3.76,8.84,0.48,-0.16,-0.14,0.85,12
1499325,-1.32,-3.80,8.82,-0.08,0.14,-0.02,16.94,4.12,-25.19,0.19,-0.15,0.07,-1.47,-3.79,8.81,0.48,-0.16,-0.14,0.85,12
1499365,-1.36,-3.72,8.94,-0.15,0.08,-0.01,16.38,4.06,-25.56,0.15,-0.01,0.01,-1.51,-3.84,8.78,0.48,-0.17,-0.14,0.85,12
1499406,-1.62,-3.87,8.64,-0.12,0.16,0.03,18.12,4.81,-26.12,0.15,0.12,0.16,-1.55,-3.88,8.76,0.48,-0.17,-0.14,0.85,12
1499445,-1.66,-3.87,8.71,-0.06,0.05,0.00,18.00,4.56,-26.81,-0.07,0.01,-0.12,-1.58,-3.90,8.75,0.48,-0.17,-0.14,0.85,12
1499485,-1.59,-3.91,8.75,-0.04,0.03,0.01,19.19,4.00,-24.88,-0.08,0.03,-0.04,-1.58,-3.91,8.73,0.48,-0.17,-0.14,0.85,12
1499525,-1.62,-3.95,8.71,-0.03,0.02,0.00,18.88,4.06,-26.69,-0.01,0.00,0.02,-1.59,-3.93,8.73,0.48,-0.17,-0.14,0.85,12
1499566,-1.51,-3.91,8.79,-0.01,-0.02,-0.01,19.44,4.06,-25.94,-0.04,-0.02,-0.02,-1.58,-3.93,8.73,0.48,-0.17,-0.14,0.85,12
1499605,-1.55,-3.91,8.79,-0.01,0.01,0.01,16.75,4.12,-26.31,0.07,0.02,0.05,-1.59,-3.94,8.73,0.48,-0.17,-0.14,0.85,12
1499645,-1.59,-3.91,8.71,-0.01,-0.01,0.00,17.31,4.12,-25.81,0.04,0.03,0.06,-1.59,-3.94,8.73,0.48,-0.18,-0.14,0.85,12
1499685,-1.59,-3.95,8.68,-0.01,0.01,0.00,19.25,3.81,-27.06,0.00,0.03,-0.02,-1.59,-3.94,8.73,0.48,-0.18,-0.14,0.85,12
1499727,-1.59,-3.91,8.75,-0.01,-0.01,-0.01,18.06,4.25,-26.12,0.00,-0.01,-0.05,-1.59,-3.95,8.73,0.48,-0.18,-0.14,0.85,12
1499766,-1.51,-3.95,8.71,-0.00,-0.00,-0.00,20.00,5.62,-26.62,0.00,0.04,0.02,-1.58,-3.95,8.73,0.48,-0.18,-0.14,0.85,12
1499806,-1.59,-3.91,8.75,0.00,0.00,0.00,17.62,3.00,-25.75,0.07,-0.00,-0.02,-1.60,-3.92,8.72,0.48,-0.18,-0.14,0.85,12
1499846,-1.59,-3.91,8.79,-0.01,-0.01,-0.00,18.56,5.19,-26.81,0.02,0.01,0.03,-1.60,-3.92,8.72,0.48,-0.18,-0.14,0.85,12
1499887,-1.51,-3.95,8.71,0.00,0.00,0.01,19.38,4.69,-27.06,0.02,0.01,0.07,-1.59,-3.91,8.73,0.48,-0.18,-0.14,0.85,12
1499926,-1.59,-3.95,8.75,0.00,0.03,0.01,17.94,4.75,-25.06,0.09,-0.04,-0.02,-1.59,-3.92,8.73,0.48,-0.18,-0.14,0.85,12
1499966,-1.62,-3.95,8.75,0.00,0.00,0.00,19.06,4.06,-25.56,0.01,-0.03,0.02,-1.59,-3.92,8.73,0.48,-0.18,-0.14,0.85,12
1500006,-1.55,-3.95,8.71,0.00,0.00,0.01,18.56,4.88,-26.44,-0.03,-0.03,0.02,-1.59,-3.92,8.73,0.48,-0.18,-0.14,0.85,12
1500048,-1.62,-3.91,8.75,0.00,0.02,0.01,18.12,5.12,-26.50,0.05,-0.03,-0.02,-1.59,-3.93,8.73,0.48,-0.18,-0.14,0.85,12
1500086,-1.66,-3.91,8.67,-0.00,-0.01,-0.01,17.94,4.56,-27.19,-0.03,0.02,0.02,-1.59,-3.93,8.73,0.48,-0.18,-0.14,0.85,12
1500126,-1.47,-3.99,8.79,-0.04,-0.14,-0.03,18.88,5.75,-25.38,-0.07,0.02,-0.06,-1.55,-3.94,8.73,0.48,-0.17,-0.14,0.85,12
1500166,-1.55,-3.99,8.75,-0.03,-0.02,0.01,16.94,6.19,-26.69,0.08,-0.05,0.05,-1.55,-3.95,8.73,0.48,-0.17,-0.14,0.85,12
1500208,-1.51,-3.95,8.71,-0.02,-0.07,-0.02,17.88,4.50,-25.44,0.00,-0.04,0.02,-1.53,-3.95,8.73,0.48,-0.17,-0.14,0.85,12
1500247,-1.39,-4.02,8.75,0.00,-0.02,0.01,17.56,5.44,-27.69,0.02,-0.00,-0.02,-1.53,-3.95,8.74,0.48,-0.17,-0.14,0.85,12
1500287,-1.59,-3.99,8.71,-0.00,0.04,0.02,16.88,5.06,-26.31,0.14,-0.08,0.01,-1.53,-3.95,8.73,0.48,-0.17,-0.14,0.85,12
1500327,-1.62,-3.91,8.71,-0.01,-0.03,-0.01,18.62,5.50,-26.44,-0.05,-0.04,-0.02,-1.52,-3.96,8.73,0.48,-0.17,-0.14,0.85,12
1500367,-1.43,-3.91,8.79,-0.02,0.00,0.01,17.00,5.31,-25.56,-0.10,0.05,-0.02,-1.52,-3.96,8.73,0.48,-0.17,-0.14,0.85,12
1500407,-1.55,-4.02,8.71,-0.02,-0.01,0.01,18.12,4.81,-26.12,0.09,0.05,0.05,-1.52,-3.96,8.73,0.48,-0.17,-0.14,0.85,12
1500447,-1.55,-3.99,8.71,-0.00,0.02,0.00,15.81,4.38,-26.44,-0.02,-0.06,-0.02,-1.53,-3.97,8.73,0.48,-0.17,-0.14,0.85,12
1500487,-1.62,-3.95,8.71,-0.01,-0.05,-0.02,17.62,4.50,-26.88,-0.02,-0.02,-0.02,-1.52,-3.97,8.73,0.48,-0.17,-0.14,0.85,12
1500527,-1.47,-3.99,8.71,-0.01,-0.01,-0.01,18.50,4.56,-26.44,-0.11,0.02,-0.02,-1.52,-3.98,8.73,0.48,-0.17,-0.14,0.85,12
1500567,-1.47,-4.02,8.68,0.00,-0.02,0.01,18.50,4.56,-26.44,0.05,-0.01,-0.02,-1.51,-3.97,8.72,0.48,-0.17,-0.14,0.85,12
1500607,-1.62,-4.02,8.68,-0.01,0.03,0.09,18.19,4.19,-25.38,0.04,-0.05,-0.05,-1.52,-3.98,8.71,0.48,-0.17,-0.14,0.85,12
1500647,-1.43,-3.87,8.86,-0.07,-0.09,0.08,15.81,5.00,-27.12,-0.10,-0.04,-0.04,-1.52,-3.99,8.71,0.48,-0.17,-0.14,0.85,12
1500687,-1.43,-4.06,8.71,-0.03,0.07,0.07,17.31,5.06,-26.25,0.09,0.12,0.15,-1.54,-4.00,8.70,0.48,-0.17,-0.14,0.85,12
1500727,-1.59,-3.99,8.75,-0.04,-0.03,0.04,17.31,5.06,-26.25,0.11,-0.06,0.01,-1.53,-4.01,8.71,0.48,-0.18,-0.14,0.85,12
1500767,-1.70,-4.10,8.63,-0.02,0.04,-0.00,19.25,5.19,-25.31,-0.05,0.02,0.04,-1.53,-4.01,8.71,0.48,-0.18,-0.14,0.85,12
1500807,-1.59,-3.99,8.52,0.00,-0.07,-0.05,18.19,5.12,-26.19,-0.17,-0.09,-0.08,-1.52,-4.02,8.71,0.48,-0.17,-0.15,0.85,12
1500847,-1.39,-3.99,8.82,0.00,0.01,-0.02,18.06,4.88,-26.50,-0.07,0.03,-0.19,-1.52,-4.01,8.70,0.48,-0.17,-0.15,0.85,12
1500887,-1.43,-4.21,8.48,0.01,-0.02,0.00,17.75,3.94,-25.75,0.13,0.02,0.12,-1.52,-4.01,8.71,0.48,-0.17,-0.15,0.85,12
1500927,-1.47,-3.91,8.79,0.00,0.13,0.01,18.25,5.44,-26.19,0.09,-0.21,-0.23,-1.55,-4.01,8.70,0.48,-0.18,-0.14,0.85,12
1500967,-1.62,-3.87,8.86,0.00,-0.01,0.00,18.81,4.06,-27.12,0.09,0.10,0.09,-1.55,-4.01,8.70,0.48,-0.18,-0.14,0.85,12
1501007,-1.47,-3.99,8.82,-0.02,0.02,0.03,16.75,4.44,-26.31,-0.07,0.14,0.16,-1.57,-4.02,8.70,0.48,-0.18,-0.14,0.85,12
1501047,-1.66,-4.06,8.60,0.01,0.03,0.02,14.75,4.94,-28.38,0.10,0.03,0.13,-1.59,-4.02,8.70,0.48,-0.18,-0.14,0.85,12
1501087,-1.70,-3.99,8.71,0.02,-0.00,0.00,18.25,5.44,-26.19,-0.07,-0.05,-0.10,-1.59,-4.01,8.70,0.48,-0.18,-0.14,0.85,12
1501127,-1.55,-3.91,8.86,-0.01,-0.04,0.01,16.88,5.94,-26.69,-0.11,0.02,0.02,-1.58,-4.01,8.70,0.48,-0.18,-0.14,0.85,12
1501167,-1.39,-4.02,8.71,-0.00,0.08,0.05,17.94,5.38,-25.44,0.03,0.10,0.17,-1.60,-4.01,8.70,0.48,-0.18,-0.14,0.85,12
1501208,-1.74,-3.95,8.75,-0.00,0.00,-0.00,17.69,5.12,-26.88,0.21,-0.02,0.02,-1.61,-4.01,8.69,0.47,-0.18,-0.14,0.85,12
1501248,-1.43,-4.14,8.60,0.00,0.01,0.02,18.06,5.69,-25.12,-0.13,0.06,0.06,-1.62,-4.01,8.69,0.47,-0.18,-0.14,0.85,12
1501288,-1.66,-4.02,8.68,0.02,0.16,0.04,18.38,5.12,-25.06,0.19,-0.13,-0.09,-1.67,-3.99,8.69,0.47,-0.18,-0.14,0.85,12
1501328,-1.85,-3.91,8.71,0.00,-0.03,-0.00,17.69,4.81,-26.56,0.01,-0.03,-0.02,-1.67,-3.99,8.69,0.47,-0.18,-0.14,0.85,12
1501368,-1.74,-3.99,8.67,0.01,0.06,0.02,17.25,5.06,-26.62,-0.18,0.08,0.02,-1.70,-3.99,8.68,0.47,-0.18,-0.14,0.85,12
1501408,-1.74,-3.95,8.71,-0.01,-0.02,-0.00,18.31,4.81,-25.00,-0.04,0.00,-0.01,-1.69,-3.99,8.69,0.47,-0.18,-0.14,0.85,12
1501448,-1.62,-3.99,8.67,0.00,0.03,0.01,17.88,5.12,-25.81,-0.05,0.04,0.02,-1.70,-3.99,8.68,0.47,-0.18,-0.14,0.85,12
1501488,-1.78,-3.99,8.67,-0.00,-0.00,-0.00,17.19,4.19,-26.56,0.08,0.00,-0.01,-1.70,-3.99,8.68,0.47,-0.18,-0.14,0.85,12
1501528,-1.66,-3.99,8.67,0.01,-0.01,-0.00,19.88,5.31,-27.06,-0.07,0.00,-0.01,-1.70,-3.98,8.69,0.47,-0.18,-0.14,0.85,12
1501568,-1.70,-4.02,8.75,-0.00,0.02,0.02,18.38,3.75,-26.75,0.04,-0.00,-0.02,-1.71,-3.98,8.68,0.47,-0.18,-0.14,0.85,12
1501608,-1.78,-3.95,8.71,-0.00,0.03,0.00,19.31,5.19,-24.94,0.01,-0.04,0.07,-1.72,-3.98,8.68,0.47,-0.18,-0.14,0.85,12
1501649,-1.74,-3.87,8.71,-0.02,-0.02,-0.01,19.06,4.62,-26.00,-0.06,0.04,0.03,-1.70,-3.98,8.70,0.47,-0.18,-0.14,0.85,12
1501688,-1.74,-3.99,8.64,0.01,-0.02,-0.01,19.00,4.62,-26.38,-0.04,0.11,0.02,-1.70,-3.98,8.70,0.47,-0.18,-0.14,0.85,12
1501728,-1.74,-4.02,8.59,0.01,-0.02,-0.01,19.06,4.94,-26.00,-0.04,-0.00,-0.06,-1.69,-3.98,8.70,0.47,-0.18,-0.14,0.85,12
1501768,-1.70,-3.99,8.68,0.01,-0.00,-0.01,19.19,5.81,-26.06,-0.05,-0.05,-0.10,-1.69,-3.98,8.69,0.47,-0.18,-0.14,0.85,12
1501808,-1.70,-3.95,8.71,0.00,-0.04,-0.02,19.81,3.81,-26.56,-0.01,-0.00,-0.02,-1.68,-3.98,8.69,0.47,-0.18,-0.14,0.85,12
1501848,-1.74,-4.02,8.68,-0.00,0.01,-0.00,18.38,4.62,-27.56,-0.02,0.04,0.02,-1.68,-3.98,8.69,0.48,-0.18,-0.14,0.85,12
1501888,-1.66,-3.95,8.68,0.00,-0.04,-0.02,18.56,4.25,-26.06,-0.06,-0.04,-0.02,-1.66,-3.98,8.69,0.48,-0.18,-0.14,0.85,12
1501928,-1.62,-3.99,8.75,-0.01,0.02,-0.00,19.56,4.62,-25.56,0.00,0.04,-0.02,-1.67,-3.98,8.69,0.48,-0.18,-0.14,0.85,12
1501968,-1.70,-3.95,8.75,-0.01,0.00,-0.00,18.19,4.81,-25.75,0.05,-0.00,0.06,-1.67,-3.98,8.69,0.48,-0.18,-0.14,0.85,12
1502008,-1.70,-3.95,8.67,0.00,0.01,-0.01,18.75,3.50,-27.06,-0.03,0.04,0.06,-1.67,-3.98,8.70,0.48,-0.18,-0.14,0.85,12
1502048,-1.70,-3.99,8.63,0.01,-0.04,-0.03,18.12,5.94,-24.69,-0.03,0.04,-0.02,-1.66,-3.98,8.70,0.48,-0.18,-0.14,0.85,12
1502089,-1.51,-4.06,8.75,0.02,0.04,0.02,18.00,5.06,-25.06,-0.04,-0.01,-0.06,-1.68,-3.98,8.69,0.48,-0.18,-0.14,0.85,12
1502129,-1.78,-3.99,8.67,0.02,0.01,-0.01,18.94,4.62,-26.75,0.17,-0.09,0.06,-1.67,-3.98,8.69,0.48,-0.18,-0.14,0.85,12
1502169,-1.55,-3.95,8.79,0.00,-0.02,-0.02,18.75,3.19,-26.69,-0.11,-0.01,-0.02,-1.67,-3.98,8.69,0.48,-0.18,-0.14,0.85,12
1502209,-1.70,-3.99,8.71,0.00,0.03,0.01,17.38,5.69,-26.31,0.12,0.03,0.10,-1.67,-3.97,8.70,0.48,-0.18,-0.14,0.85,12
1502250,-1.74,-3.95,8.68,0.00,-0.03,-0.01,16.56,5.56,-25.62,-0.03,-0.02,0.02,-1.66,-3.97,8.70,0.48,-0.18,-0.14,0.85,12
1502290,-1.59,-3.99,8.67,0.01,0.02,0.00,18.50,4.25,-26.44,-0.07,0.02,-0.02,-1.67,-3.97,8.70,0.48,-0.18,-0.14,0.85,12
1502329,-1.74,-3.91,8.75,0.00,-0.03,-0.02,18.69,5.50,-26.12,0.09,-0.02,-0.02,-1.66,-3.97,8.70,0.48,-0.18,-0.14,0.85,12
1502370,-1.55,-3.99,8.71,-0.00,-0.04,-0.01,18.75,5.19,-25.69,-0.08,0.06,0.05,-1.65,-3.96,8.70,0.48,-0.18,-0.14,0.85,12
1502410,-1.62,-4.02,8.68,0.00,0.03,0.01,18.62,5.19,-26.12,0.10,-0.03,0.01,-1.66,-3.96,8.70,0.48,-0.18,-0.14,0.85,12
1502450,-1.70,-3.95,8.75,-0.01,-0.02,-0.00,19.00,5.25,-26.75,0.04,-0.06,-0.03,-1.64,-3.97,8.70,0.48,-0.18,-0.14,0.85,12
1502489,-1.66,-3.95,8.68,-0.01,0.03,-0.00,19.44,4.38,-26.31,-0.06,0.02,0.05,-1.65,-3.97,8.70,0.48,-0.18,-0.14,0.85,12
1502530,-1.59,-3.99,8.64,0.00,-0.04,-0.01,18.94,4.94,-27.12,-0.01,0.02,-0.03,-1.64,-3.98,8.70,0.48,-0.18,-0.14,0.85,12
1502570,-1.66,-4.02,8.71,0.01,0.06,0.02,17.56,4.75,-24.75,0.05,-0.01,-0.06,-1.66,-3.98,8.70,0.48,-0.18,-0.14,0.85,12
1502610,-1.74,-3.95,8.71,0.00,-0.02,-0.01,18.44,4.31,-26.75,-0.00,-0.05,0.02,-1.65,-3.98,8.70,0.48,-0.18,-0.14,0.85,12
1502650,-1.59,-4.02,8.68,-0.00,-0.00,0.00,18.44,5.25,-27.56,-0.09,0.03,0.02,-1.65,-3.98,8.70,0.48,-0.18,-0.14,0.85,12
1502690,-1.74,-3.99,8.71,0.00,0.04,0.01,19.81,3.81,-26.25,0.06,-0.05,-0.02,-1.66,-3.97,8.70,0.48,-0.18,-0.14,0.85,12
1502730,-1.66,-3.91,8.75,-0.00,-0.03,-0.01,16.94,4.38,-25.19,-0.08,-0.02,0.02,-1.65,-3.98,8.70,0.48,-0.18,-0.14,0.85,12
1502770,-1.55,-4.02,8.67,-0.02,0.02,0.03,18.75,4.88,-25.31,-0.01,0.07,0.05,-1.66,-3.98,8.70,0.48,-0.18,-0.14,0.85,12
1502810,-1.85,-3.91,8.71,0.01,0.02,0.00,18.56,5.19,-26.81,0.12,-0.05,-0.02,-1.67,-3.98,8.70,0.48,-0.18,-0.14,0.85,12
1502850,-1.59,-3.99,8.67,-0.01,-0.06,-0.02,18.50,4.88,-26.81,-0.18,0.07,0.02,-1.66,-3.97,8.70,0.48,-0.18,-0.14,0.85,12
1502890,-1.66,-3.99,8.64,0.02,0.05,-0.01,18.88,4.31,-26.69,0.07,-0.02,-0.02,-1.66,-3.97,8.70,0.48,-0.18,-0.14,0.85,12
1502930,-1.78,-3.99,8.67,0.00,-0.05,-0.03,18.94,5.25,-27.12,0.00,-0.02,-0.06,-1.65,-3.97,8.70,0.48,-0.18,-0.14,0.85,12
1502971,-1.59,-4.02,8.63,0.00,0.01,-0.01,18.62,5.19,-26.44,-0.13,-0.02,-0.02,-1.65,-3.97,8.70,0.48,-0.18,-0.14,0.85,12
1503010,-1.66,-3.91,8.71,0.00,-0.00,-0.00,18.31,4.94,-27.88,0.06,-0.05,-0.06,-1.65,-3.97,8.70,0.48,-0.18,-0.14,0.85,12
1503050,-1.74,-4.14,8.79,-0.07,0.01,-0.05,18.69,4.56,-25.31,-0.01,0.06,0.02,-1.62,-4.01,8.68,0.48,-0.18,-0.14,0.85,12
1503090,-2.01,-4.71,9.44,-0.34,-0.39,-0.33,18.06,4.88,-26.50,-0.11,-0.13,0.11,-1.45,-4.09,8.68,0.48,-0.18,-0.15,0.85,12
1503131,-1.09,-3.76,8.55,0.70,-0.30,-0.50,16.50,3.62,-27.38,-0.55,-0.63,0.76,-1.25,-3.91,8.79,0.48,-0.17,-0.15,0.85,12
1503170,-1.89,-3.76,9.48,0.03,-0.42,-0.99,15.38,4.62,-26.81,0.16,0.15,-0.23,-0.94,-3.91,8.84,0.50,-0.15,-0.15,0.84,12
1503213,-2.35,-4.25,9.55,0.11,-1.32,-0.74,11.75,4.06,-26.94,-0.95,0.16,0.64,-0.40,-3.90,8.88,0.51,-0.14,-0.16,0.84,12
1503250,-0.78,-3.53,8.67,-0.25,-1.03,-0.29,9.56,2.06,-26.00,-1.95,-0.36,0.67,0.00,-4.01,8.84,0.51,-0.11,-0.17,0.83,12
1503291,-0.43,-4.95,8.48,-1.34,-0.30,0.28,9.31,4.44,-26.12,-0.78,0.48,-0.17,0.07,-4.45,8.63,0.51,-0.11,-0.19,0.83,12
1503331,-0.32,-5.56,8.48,-1.32,-0.19,0.38,10.75,6.81,-24.62,-0.50,-0.50,-0.15,0.07,-4.91,8.38,0.50,-0.12,-0.22,0.83,12
1503371,0.06,-5.79,8.68,-1.32,-0.19,0.47,12.69,8.62,-21.94,-0.39,-0.64,0.11,0.04,-5.33,8.13,0.49,-0.13,-0.24,0.83,12
1503415,0.33,-5.63,8.13,-0.48,-0.14,0.69,12.88,10.31,-22.00,0.02,-0.46,0.54,-0.07,-5.49,8.02,0.47,-0.14,-0.25,0.83,12
1503453,0.21,-4.79,6.48,-0.53,-0.21,0.53,13.38,10.12,-21.50,0.40,-0.14,0.12,-0.12,-5.66,7.90,0.46,-0.15,-0.26,0.84,12
1503491,-0.09,-5.37,7.11,-0.86,-0.52,0.10,15.44,10.69,-20.19,0.33,0.86,-1.41,0.02,-5.95,7.69,0.45,-0.15,-0.27,0.84,12
1503531,0.37,-6.40,8.52,-0.99,-0.63,0.04,13.56,13.50,-20.25,-0.11,0.58,-0.59,0.20,-6.23,7.45,0.44,-0.15,-0.30,0.83,12
1503571,0.79,-6.48,8.40,-0.10,-0.39,0.06,13.88,12.31,-20.50,0.17,-0.17,1.07,0.30,-6.27,7.41,0.44,-0.15,-0.31,0.83,12
1503613,0.18,-5.25,6.87,0.25,-0.03,-0.03,12.19,12.50,-20.00,0.48,-0.20,0.99,0.34,-6.20,7.48,0.44,-0.14,-0.31,0.83,12
1503651,-0.21,-5.10,5.99,0.09,-0.32,-0.04,12.12,11.31,-19.56,-0.16,0.95,-0.61,0.45,-6.17,7.49,0.44,-0.14,-0.31,0.83,12
1503691,-0.05,-5.79,6.49,-0.71,-0.57,-0.06,15.00,12.31,-18.56,-0.65,1.07,-1.50,0.62,-6.37,7.31,0.43,-0.13,-0.32,0.83,12
1503735,0.52,-6.71,7.57,-0.71,-0.58,0.09,13.25,14.31,-20.00,-0.67,0.58,-0.82,0.76,-6.56,7.12,0.43,-0.13,-0.34,0.83,12
1503771,0.95,-6.94,7.75,-0.51,-0.29,0.06,12.94,14.25,-19.25,-0.23,-0.14,0.44,0.83,-6.73,6.95,0.42,-0.13,-0.35,0.83,12
1503811,1.25,-6.94,6.34,-1.03,0.16,-0.12,16.88,15.38,-17.75,0.12,-0.21,0.80,0.82,-7.00,6.67,0.42,-0.13,-0.36,0.82,12
1503851,1.14,-7.36,6.22,-0.93,0.15,0.15,17.00,16.25,-17.81,0.43,0.06,-0.34,0.74,-7.24,6.41,0.42,-0.14,-0.38,0.81,12
1505684,1.25,-7.59,5.95,0.06,0.01,0.06,11.31,21.50,-21.69,0.39,-0.12,-0.19,1.19,-7.52,6.05,0.37,-0.12,-0.42,0.82,12
1505724,1.33,-7.55,6.03,0.08,0.10,0.08,12.94,20.50,-21.44,0.06,-0.07,-0.10,1.14,-7.50,6.09,0.37,-0.12,-0.42,0.82,12
1505765,1.10,-7.51,6.11,0.04,0.02,0.04,12.19,20.69,-21.12,0.19,-0.05,-0.06,1.12,-7.49,6.10,0.37,-0.12,-0.42,0.82,12
1505804,1.02,-7.39,6.22,-0.01,0.00,-0.01,13.19,20.69,-20.31,-0.02,-0.02,0.00,1.12,-7.49,6.10,0.37,-0.12,-0.41,0.82,12
1505844,1.06,-7.59,5.91,-0.02,-0.03,-0.01,12.44,19.56,-21.44,-0.10,0.10,0.12,1.13,-7.50,6.09,0.37,-0.12,-0.42,0.82,12
1505884,1.21,-7.55,5.99,0.03,0.01,0.00,12.56,21.06,-21.81,-0.07,-0.09,-0.18,1.12,-7.50,6.09,0.37,-0.12,-0.42,0.82,12
1505925,1.06,-7.55,6.07,0.01,0.04,0.03,12.00,19.19,-21.12,0.09,-0.05,-0.10,1.11,-7.49,6.10,0.37,-0.12,-0.41,0.82,12
1505964,0.87,-7.47,6.11,-0.02,-0.06,-0.07,13.12,19.31,-21.69,-0.05,-0.06,-0.04,1.12,-7.50,6.09,0.37,-0.12,-0.41,0.82,12
1506004,1.29,-7.55,6.03,-0.03,-0.02,-0.04,13.38,20.19,-20.94,-0.26,0.03,0.01,1.16,-7.50,6.09,0.37,-0.12,-0.42,0.82,12
1506044,1.33,-7.55,6.03,0.01,0.02,0.02,13.31,19.31,-20.56,0.13,-0.05,-0.06,1.15,-7.50,6.09,0.37,-0.12,-0.42,0.82,12
1506086,1.10,-7.43,6.07,0.04,0.04,0.01,14.38,20.56,-20.88,0.18,-0.05,-0.06,1.14,-7.49,6.10,0.37,-0.12,-0.42,0.82,12
1506125,1.14,-7.51,6.07,0.02,-0.02,0.01,12.75,19.19,-19.56,-0.04,0.06,-0.04,1.14,-7.48,6.10,0.37,-0.12,-0.41,0.82,12
1506165,1.21,-7.55,5.99,0.04,0.05,0.03,12.94,19.88,-21.06,-0.00,-0.03,-0.04,1.13,-7.48,6.11,0.37,-0.12,-0.41,0.82,12
1506205,1.14,-7.39,6.18,0.01,0.02,-0.02,12.88,20.75,-22.12,0.08,-0.07,-0.12,1.12,-7.48,6.12,0.37,-0.12,-0.41,0.82,12
1506247,1.14,-7.51,6.11,-0.04,-0.07,-0.06,11.56,19.19,-21.12,0.01,0.08,0.06,1.16,-7.48,6.11,0.37,-0.12,-0.41,0.82,12
1506285,1.25,-7.39,6.18,-0.04,-0.03,-0.07,11.69,20.06,-20.81,-0.02,-0.03,-0.00,1.12,-7.50,6.06,0.37,-0.12,-0.42,0.82,12
1506325,1.21,-7.31,6.11,0.05,0.07,-0.10,11.12,19.75,-21.25,0.13,0.11,0.12,1.15,-7.49,6.07,0.37,-0.12,-0.42,0.82,12
1506365,1.09,-7.51,6.03,0.03,-0.08,-0.12,13.75,19.94,-21.31,0.06,0.18,0.04,1.19,-7.47,6.08,0.38,-0.11,-0.42,0.82,12
1506405,1.25,-7.59,5.99,0.03,-0.03,-0.06,11.69,20.62,-21.25,-0.09,-0.04,-0.05,1.23,-7.46,6.08,0.38,-0.11,-0.42,0.82,12
1506445,1.44,-7.55,5.92,0.08,0.03,0.07,13.12,19.88,-19.88,0.02,-0.12,-0.09,1.23,-7.45,6.09,0.38,-0.11,-0.42,0.82,12
1506485,1.25,-7.39,6.22,0.10,0.07,0.06,11.06,20.06,-22.00,0.21,-0.09,-0.18,1.21,-7.45,6.12,0.38,-0.11,-0.41,0.82,12
1506525,1.09,-7.47,6.07,0.05,-0.01,0.04,13.75,20.25,-21.31,0.04,0.05,0.11,1.21,-7.44,6.12,0.38,-0.11,-0.41,0.82,12
1506565,1.17,-7.47,6.18,0.00,0.01,-0.00,12.62,20.12,-20.69,-0.12,-0.03,-0.05,1.20,-7.44,6.12,0.38,-0.11,-0.41,0.82,12
1506605,1.17,-7.51,6.03,-0.02,-0.04,-0.02,13.00,19.88,-20.62,-0.03,-0.03,0.06,1.22,-7.45,6.13,0.38,-0.11,-0.41,0.82,12
1506645,1.21,-7.47,6.18,-0.02,0.00,-0.03,11.44,19.50,-21.88,-0.05,-0.06,-0.10,1.21,-7.45,6.12,0.38,-0.11,-0.41,0.82,12
1506685,1.25,-7.36,6.22,-0.02,-0.04,-0.02,12.50,20.75,-22.19,0.00,-0.02,0.07,1.22,-7.45,6.12,0.38,-0.11,-0.41,0.82,12
1506725,1.32,-7.47,6.03,0.02,0.03,0.02,12.06,19.81,-21.12,0.03,0.10,0.11,1.22,-7.45,6.12,0.38,-0.11,-0.41,0.82,12
1506765,1.13,-7.39,6.07,0.06,-0.05,0.02,13.19,19.94,-21.69,0.11,-0.02,-0.09,1.23,-7.45,6.12,0.38,-0.11,-0.41,0.82,12
1506805,1.29,-7.43,6.22,0.12,-0.04,0.02,11.62,19.75,-21.19,-0.09,0.05,-0.05,1.23,-7.41,6.16,0.38,-0.11,-0.41,0.82,12
1506845,1.29,-7.39,6.18,0.15,-0.02,0.03,12.19,18.75,-22.50,0.05,-0.02,0.07,1.23,-7.38,6.20,0.38,-0.11,-0.41,0.82,12
1506885,1.21,-7.39,6.18,0.09,0.01,0.02,11.75,19.25,-22.62,0.05,-0.01,-0.02,1.23,-7.36,6.23,0.38,-0.11,-0.41,0.83,12
1506925,1.29,-7.36,6.26,0.09,-0.00,0.03,12.38,18.69,-21.44,-0.02,-0.04,-0.05,1.23,-7.34,6.25,0.37,-0.11,-0.41,0.83,12
1506965,1.21,-7.31,6.30,0.04,0.05,0.03,13.56,18.81,-21.62,0.06,-0.01,0.01,1.20,-7.33,6.27,0.37,-0.11,-0.41,0.83,12
1507005,1.06,-7.31,6.34,-0.04,-0.01,-0.02,11.69,18.69,-22.56,0.01,0.01,0.03,1.20,-7.34,6.27,0.37,-0.11,-0.41,0.83,12
1507045,1.17,-7.32,6.30,-0.02,0.01,-0.02,12.25,19.31,-22.56,-0.14,0.02,0.07,1.20,-7.34,6.27,0.38,-0.11,-0.41,0.83,12
1507085,1.25,-7.32,6.22,0.00,0.01,-0.00,11.88,19.88,-22.19,-0.03,0.03,0.04,1.20,-7.34,6.27,0.38,-0.11,-0.41,0.83,12
1507125,1.25,-7.28,6.34,0.01,0.00,0.00,12.38,19.25,-21.75,0.05,0.02,-0.04,1.21,-7.33,6.27,0.38,-0.11,-0.41,0.83,12
1507166,1.21,-7.31,6.30,0.05,-0.02,-0.00,12.12,19.81,-20.75,0.04,0.05,0.07,1.21,-7.32,6.28,0.38,-0.11,-0.41,0.83,12
1507207,1.29,-7.43,6.18,0.01,0.10,-0.01,11.38,20.12,-22.69,0.00,0.00,0.02,1.20,-7.31,6.29,0.38,-0.11,-0.40,0.83,12
1507246,0.98,-7.20,6.22,-0.09,-0.19,-0.13,13.12,18.75,-21.31,0.08,-0.12,-0.11,1.26,-7.32,6.28,0.38,-0.11,-0.41,0.83,12
1507286,1.32,-6.97,6.99,0.16,0.00,-0.22,11.12,18.69,-23.31,-0.28,0.12,-0.06,1.32,-7.25,6.34,0.38,-0.10,-0.40,0.83,12
1507326,1.52,-7.21,6.18,0.38,-0.20,-0.13,12.12,19.00,-22.88,0.00,0.28,0.64,1.41,-7.15,6.45,0.38,-0.10,-0.40,0.83,12
1507366,1.48,-7.51,6.03,0.22,-0.02,0.05,12.00,18.12,-23.19,0.11,-0.05,-0.26,1.41,-7.08,6.52,0.38,-0.09,-0.40,0.83,12
1507406,1.48,-7.12,6.49,0.18,0.14,0.16,12.50,18.44,-22.44,0.06,-0.43,-0.48,1.35,-7.04,6.57,0.38,-0.09,-0.39,0.83,12
1507446,1.44,-6.82,6.88,0.14,0.16,0.11,13.06,17.94,-23.81,0.12,-0.09,-0.08,1.27,-7.00,6.62,0.38,-0.10,-0.39,0.83,12
1507486,0.60,-6.89,6.80,0.13,-0.04,-0.03,11.00,18.38,-23.75,0.18,0.18,0.25,1.27,-6.96,6.67,0.38,-0.10,-0.38,0.84,12
1507527,0.86,-7.01,6.64,-0.07,-0.13,-0.10,12.56,16.12,-22.69,-0.67,0.07,0.12,1.31,-6.97,6.66,0.38,-0.10,-0.38,0.84,12
1507566,1.48,-6.93,6.72,-0.04,-0.05,-0.06,12.88,16.69,-21.25,-0.45,-0.04,-0.02,1.35,-6.98,6.64,0.38,-0.09,-0.39,0.83,12
1507606,1.48,-7.05,6.53,0.04,0.02,0.02,12.38,19.06,-23.94,0.12,0.04,0.08,1.34,-6.98,6.65,0.38,-0.09,-0.39,0.83,12
1507646,1.29,-7.01,6.61,0.03,0.03,0.02,11.44,17.50,-23.25,0.13,-0.07,-0.12,1.33,-6.96,6.66,0.38,-0.09,-0.39,0.83,12
1507686,1.21,-6.93,6.68,0.01,-0.01,0.00,11.94,17.88,-23.19,-0.04,-0.05,-0.06,1.33,-6.96,6.66,0.38,-0.09,-0.39,0.83,12
1507726,1.29,-7.12,6.53,-0.04,0.01,0.04,12.50,17.56,-22.00,-0.12,0.03,0.02,1.32,-6.97,6.66,0.38,-0.09,-0.39,0.83,12
1507766,1.36,-7.20,6.30,0.04,0.00,0.18,12.75,17.56,-22.75,-0.04,-0.16,-0.14,1.27,-6.97,6.66,0.38,-0.10,-0.39,0.84,12
1507806,1.67,-7.24,6.53,0.05,0.36,0.40,12.69,17.94,-23.50,0.09,-0.23,-0.36,1.12,-6.98,6.68,0.38,-0.10,-0.38,0.84,12
1507846,1.67,-6.93,6.80,0.10,0.39,0.44,13.81,18.56,-22.62,0.55,-0.27,-0.15,0.88,-6.98,6.73,0.37,-0.11,-0.38,0.84,12
1507886,-0.17,-6.51,7.18,0.15,0.34,0.22,13.44,18.81,-22.38,0.79,0.04,0.07,0.70,-6.95,6.78,0.37,-0.12,-0.37,0.84,12
1507926,-0.21,-6.78,6.88,0.01,-0.09,-0.10,13.38,17.75,-24.50,-0.87,0.43,0.40,0.70,-6.93,6.79,0.37,-0.12,-0.37,0.84,12
1507966,0.56,-6.97,6.84,-0.07,-0.18,-0.17,15.31,19.06,-24.31,-0.91,0.15,0.09,0.80,-6.95,6.77,0.37,-0.12,-0.37,0.84,12
1508006,1.29,-6.93,6.68,0.15,0.03,-0.03,13.56,17.38,-23.38,-0.25,-0.03,0.07,0.83,-6.91,6.79,0.37,-0.11,-0.37,0.84,12
1508046,1.02,-6.97,6.84,0.17,0.07,0.10,13.44,17.12,-23.69,0.46,-0.02,-0.11,0.79,-6.87,6.84,0.37,-0.11,-0.37,0.84,12
1508086,0.48,-6.78,6.98,0.12,0.09,0.08,14.06,18.31,-23.69,0.23,-0.11,0.00,0.73,-6.84,6.88,0.37,-0.11,-0.37,0.85,12
1508126,0.45,-6.89,6.76,0.04,-0.04,0.05,13.56,17.12,-22.94,-0.25,0.05,0.11,0.73,-6.82,6.90,0.37,-0.11,-0.36,0.85,12
1508166,0.60,-6.86,6.84,0.02,0.00,0.00,11.75,17.00,-23.94,-0.28,-0.07,-0.14,0.72,-6.81,6.90,0.37,-0.11,-0.36,0.85,12
1508207,0.60,-6.86,6.91,-0.07,-0.04,-0.04,14.94,17.81,-23.19,-0.12,-0.04,-0.06,0.73,-6.83,6.89,0.37,-0.11,-0.36,0.85,12
1508248,0.64,-6.78,6.84,-0.06,-0.07,-0.09,14.38,16.62,-23.19,-0.14,-0.03,0.02,0.77,-6.85,6.87,0.37,-0.11,-0.37,0.85,12
1508288,0.86,-6.82,6.95,-0.05,-0.08,-0.08,13.44,16.81,-23.69,-0.14,0.07,-0.03,0.81,-6.87,6.85,0.37,-0.11,-0.37,0.85,12
1508328,0.98,-6.89,6.92,0.01,-0.02,-0.02,13.44,16.81,-23.69,0.05,0.05,0.10,0.83,-6.86,6.85,0.37,-0.11,-0.37,0.84,12
1508367,0.56,-6.70,7.06,-0.09,-0.01,-0.08,11.88,17.25,-23.25,0.15,-0.04,0.06,0.84,-6.88,6.84,0.37,-0.11,-0.37,0.84,12
1508408,0.67,-6.93,6.80,-0.19,-0.21,-0.14,12.75,17.31,-22.69,-0.29,0.17,0.23,0.93,-6.91,6.79,0.37,-0.11,-0.37,0.84,12
1508448,1.13,-6.97,6.76,-0.13,-0.11,-0.08,13.00,16.50,-23.06,-0.26,-0.02,0.01,1.00,-6.95,6.74,0.37,-0.11,-0.38,0.84,12
1508488,1.36,-7.27,7.07,0.41,-0.44,-0.26,13.00,16.50,-23.06,0.13,-0.03,0.02,1.23,-6.77,6.88,0.38,-0.09,-0.37,0.84,12
1508527,1.13,-6.85,6.41,-0.54,0.00,-0.24,9.62,16.50,-23.06,0.14,-0.50,0.19,1.35,-6.86,6.77,0.38,-0.09,-0.38,0.84,12
1508568,0.90,-7.32,7.45,-0.22,0.11,-0.05,9.19,17.62,-23.50,-0.22,0.00,-0.36,1.34,-6.95,6.69,0.38,-0.09,-0.38,0.83,12
1508608,0.94,-7.01,6.72,-0.15,-0.20,0.29,10.44,17.12,-23.31,-0.43,-0.37,0.76,1.28,-7.00,6.64,0.38,-0.10,-0.39,0.84,12
1508648,1.63,-6.78,6.30,-0.50,0.17,-0.02,10.88,18.00,-21.56,-0.34,-0.01,0.08,1.25,-7.10,6.53,0.38,-0.10,-0.39,0.83,12
1508688,0.75,-7.55,7.14,0.02,0.15,0.13,11.44,18.31,-21.19,0.38,0.32,-0.23,1.18,-7.18,6.47,0.38,-0.11,-0.40,0.83,12
1508728,0.94,-7.01,6.34,-0.10,-0.10,-0.03,10.19,18.31,-23.06,-0.43,-0.37,0.67,1.19,-7.20,6.43,0.38,-0.11,-0.40,0.83,12
1508768,1.36,-7.20,6.41,-0.06,-0.01,0.02,10.81,18.00,-21.94,-0.25,0.19,-0.09,1.20,-7.23,6.41,0.38,-0.11,-0.40,0.83,12
1508808,1.36,-7.24,6.41,-0.02,0.01,0.06,12.06,18.12,-22.88,0.17,0.02,0.01,1.18,-7.23,6.41,0.37,-0.11,-0.40,0.83,12
1508848,1.17,-7.17,6.49,-0.05,-0.02,0.06,10.38,17.94,-21.62,0.18,-0.01,0.01,1.16,-7.24,6.39,0.37,-0.11,-0.40,0.83,12
1508888,1.21,-7.24,6.41,-0.06,-0.02,0.05,11.19,19.88,-23.81,0.01,0.08,0.10,1.16,-7.26,6.38,0.37,-0.11,-0.40,0.83,12
1508928,1.55,-7.20,6.07,-0.07,0.12,-0.07,11.81,19.56,-22.62,0.05,0.02,0.04,1.23,-7.28,6.34,0.38,-0.11,-0.40,0.83,12
1508968,0.86,-7.43,6.34,0.03,0.05,0.01,9.56,19.69,-22.88,0.33,0.08,-0.27,1.23,-7.28,6.34,0.38,-0.11,-0.40,0.83,12
1509009,1.02,-7.24,6.45,0.00,0.14,-0.03,10.06,18.25,-21.69,-0.36,-0.15,-0.01,1.22,-7.28,6.34,0.38,-0.11,-0.40,0.83,12
1509048,1.09,-7.16,6.41,-0.06,-0.09,0.03,10.94,18.88,-21.94,-0.20,0.04,0.12,1.22,-7.29,6.33,0.38,-0.11,-0.40,0.83,12
1509088,1.32,-7.27,6.41,-0.09,-0.03,0.08,9.94,18.81,-22.81,-0.12,0.12,0.09,1.22,-7.32,6.30,0.38,-0.11,-0.41,0.83,12
1509128,1.29,-7.36,6.26,-0.08,-0.04,0.13,10.38,17.94,-21.62,0.11,0.04,0.12,1.19,-7.34,6.27,0.37,-0.11,-0.41,0.83,12
1509169,1.32,-7.25,6.18,-0.09,-0.04,0.02,12.12,19.50,-20.75,0.10,-0.01,-0.00,1.18,-7.37,6.24,0.37,-0.11,-0.41,0.83,12
1509208,1.29,-7.39,5.99,0.07,-0.27,0.08,11.12,18.81,-20.50,0.14,0.12,-0.06,1.22,-7.37,6.24,0.37,-0.11,-0.41,0.83,12
1509249,1.36,-7.47,6.26,0.12,-0.06,0.11,10.50,19.44,-22.00,0.07,-0.03,-0.25,1.23,-7.34,6.27,0.37,-0.10,-0.41,0.83,12
1509289,1.21,-7.35,6.34,0.06,-0.00,0.05,8.69,19.00,-22.25,0.14,-0.13,-0.00,1.20,-7.32,6.29,0.37,-0.10,-0.41,0.83,12
1509331,1.13,-7.28,6.30,0.00,-0.05,-0.00,10.31,17.38,-21.56,0.01,-0.04,0.05,1.21,-7.32,6.30,0.37,-0.10,-0.41,0.83,12
1509369,1.29,-7.36,6.26,0.00,-0.01,-0.01,10.44,19.75,-22.81,-0.08,0.04,0.00,1.22,-7.32,6.30,0.37,-0.10,-0.41,0.83,12
1509409,1.29,-7.31,6.34,-0.02,0.04,0.03,10.19,20.00,-22.06,0.07,-0.04,-0.04,1.20,-7.32,6.30,0.37,-0.10,-0.41,0.83,12
1509449,1.17,-7.25,6.41,-0.11,0.02,-0.01,9.25,19.94,-22.19,0.08,0.00,0.04,1.20,-7.34,6.27,0.36,-0.10,-0.41,0.83,12
1509491,1.21,-7.32,6.22,-0.12,-0.06,-0.07,11.25,18.38,-22.19,-0.02,0.10,0.14,1.22,-7.37,6.23,0.37,-0.10,-0.41,0.83,12
1509529,1.40,-7.51,5.92,-0.05,-0.07,-0.01,11.00,19.12,-21.62,-0.01,0.05,-0.01,1.25,-7.38,6.21,0.37,-0.10,-0.41,0.83,12
1509569,1.55,-7.43,6.18,0.03,0.14,0.06,10.44,19.12,-22.44,0.15,-0.12,-0.29,1.21,-7.39,6.22,0.37,-0.11,-0.41,0.83,12
1509609,1.09,-7.36,6.22,-0.01,0.02,0.02,9.62,18.75,-21.75,0.34,-0.04,-0.04,1.20,-7.39,6.22,0.37,-0.11,-0.41,0.83,12
1509651,1.32,-7.39,6.18,0.01,0.01,-0.00,11.00,19.44,-21.94,-0.10,0.04,0.00,1.19,-7.38,6.22,0.37,-0.11,-0.41,0.83,12
1509689,1.29,-7.39,6.22,0.02,0.05,0.02,8.75,19.25,-21.88,0.14,-0.01,-0.04,1.18,-7.38,6.23,0.37,-0.11,-0.41,0.83,12
1509729,1.17,-7.32,6.30,0.01,0.01,-0.02,9.88,17.31,-22.00,0.11,-0.01,-0.00,1.18,-7.38,6.23,0.37,-0.11,-0.41,0.83,12
1509769,1.17,-7.35,6.26,-0.01,0.02,-0.03,10.38,18.81,-22.38,-0.01,0.07,0.07,1.18,-7.38,6.23,0.37,-0.11,-0.41,0.83,12
1509809,1.29,-7.39,6.18,-0.06,0.12,-0.03,11.06,19.75,-21.62,-0.01,0.02,0.04,1.16,-7.39,6.23,0.37,-0.11,-0.41,0.83,12
1509849,1.13,-7.43,6.18,-0.07,0.09,-0.01,9.38,18.25,-22.81,0.12,-0.00,-0.04,1.14,-7.41,6.21,0.37,-0.11,-0.41,0.83,12
1509889,1.06,-7.43,6.14,-0.03,0.05,-0.02,12.00,19.19,-21.06,-0.01,-0.03,-0.03,1.24,-7.38,6.18,0.37,-0.11,-0.41,0.83,12
1509929,1.21,-7.36,6.22,-0.01,-0.01,-0.02,12.38,18.69,-21.44,-0.18,-0.05,-0.04,1.23,-7.38,6.18,0.37,-0.11,-0.41,0.83,12
1509970,1.29,-7.51,6.03,0.05,0.10,0.05,10.69,20.00,-21.25,-0.02,0.03,0.04,1.21,-7.38,6.19,0.37,-0.11,-0.41,0.83,12
1510009,0.86,-7.39,6.11,0.04,0.07,-0.06,12.56,19.25,-20.69,0.07,-0.12,-0.16,1.20,-7.38,6.19,0.37,-0.11,-0.41,0.83,12
1510049,0.67,-7.89,6.64,0.14,0.23,0.82,9.94,17.94,-22.00,-0.33,-0.01,-0.08,1.07,-7.39,6.20,0.37,-0.12,-0.41,0.83,12
1510089,1.02,-7.62,6.38,0.30,0.11,0.21,12.50,19.25,-21.00,-0.40,-0.50,0.44,0.92,-7.34,6.30,0.36,-0.12,-0.40,0.83,12
1510129,1.79,-7.31,6.11,-0.07,0.33,-0.21,12.44,18.94,-21.06,0.10,-0.28,0.08,0.91,-7.34,6.30,0.36,-0.12,-0.40,0.83,12
1510169,1.52,-8.16,7.14,0.59,0.01,-0.50,12.94,19.25,-20.62,0.88,0.03,-0.20,1.00,-7.22,6.43,0.37,-0.12,-0.40,0.83,12
1510209,1.06,-7.27,6.26,0.62,0.24,-0.47,12.62,16.62,-20.50,0.52,-0.94,0.71,1.09,-7.04,6.62,0.38,-0.11,-0.38,0.83,12
1510250,0.52,-6.59,5.61,0.17,-0.09,-0.17,11.44,15.38,-21.69,-0.03,-0.24,-0.36,1.16,-6.95,6.72,0.39,-0.11,-0.38,0.83,12
1510290,1.06,-6.21,5.76,0.13,0.09,-0.17,10.94,14.81,-21.38,-0.64,0.36,-1.11,1.19,-6.91,6.74,0.39,-0.11,-0.38,0.83,12
1510330,0.83,-6.05,6.45,-0.29,-0.00,-0.18,11.62,14.19,-19.75,-0.13,0.71,-0.98,1.23,-6.95,6.70,0.40,-0.11,-0.38,0.83,12
1510370,1.02,-6.55,7.06,-0.04,0.06,0.05,12.62,16.31,-20.19,-0.40,0.89,-0.25,1.22,-6.98,6.66,0.40,-0.11,-0.38,0.83,12
1510410,1.02,-6.36,6.64,-0.06,0.15,0.00,10.56,15.06,-21.06,-0.20,0.43,0.40,1.17,-6.99,6.66,0.40,-0.11,-0.38,0.83,12
1510451,0.64,-6.29,6.11,-0.37,-0.02,0.03,9.88,15.81,-20.81,-0.15,0.63,-0.02,1.15,-7.07,6.57,0.40,-0.11,-0.38,0.83,12
1510490,0.90,-7.24,6.68,-0.42,-0.10,0.15,11.88,16.56,-19.88,-0.51,0.79,-0.46,1.14,-7.20,6.44,0.39,-0.12,-0.39,0.82,12
1510530,1.21,-7.55,6.80,-0.27,-0.05,0.20,11.12,16.25,-21.44,-0.24,-0.05,0.25,1.09,-7.27,6.35,0.39,-0.12,-0.40,0.82,12
1510570,1.52,-7.97,6.91,-0.13,-0.15,-0.18,12.00,18.31,-20.69,0.12,-0.27,0.45,1.15,-7.33,6.28,0.39,-0.12,-0.40,0.82,12
1510611,1.32,-7.63,6.45,-0.10,-0.14,-0.21,11.94,18.94,-21.50,0.37,-0.64,0.63,1.24,-7.34,6.25,0.39,-0.12,-0.40,0.82,12
1510650,1.06,-7.51,5.95,-0.25,-0.08,0.12,11.75,17.75,-21.44,0.08,-0.29,0.20,1.25,-7.40,6.17,0.39,-0.12,-0.41,0.82,12
1510690,1.52,-7.89,6.68,-0.08,-0.06,0.15,11.50,18.62,-21.12,-0.19,-0.11,-0.22,1.22,-7.45,6.12,0.38,-0.12,-0.41,0.82,12
1510731,1.59,-7.89,6.61,0.18,0.03,0.06,10.88,18.88,-22.31,0.30,-0.45,0.56,1.20,-7.41,6.16,0.38,-0.12,-0.41,0.82,12
1510771,1.32,-7.43,5.99,0.01,0.07,0.08,12.62,20.44,-21.06,0.39,-0.48,0.44,1.16,-7.41,6.18,0.38,-0.12,-0.41,0.82,12
1510811,1.09,-7.85,6.76,-0.03,0.05,0.16,14.81,19.69,-20.06,0.16,-0.03,-0.19,1.11,-7.41,6.17,0.38,-0.12,-0.41,0.82,12
1510851,1.25,-7.73,6.57,0.32,0.13,0.19,16.00,19.81,-21.00,-0.02,-0.44,0.59,1.02,-7.37,6.25,0.38,-0.12,-0.41,0.82,12
1510891,1.21,-7.09,6.18,0.22,-0.04,-0.08,14.81,18.81,-19.62,0.23,-0.37,0.32,1.03,-7.30,6.32,0.38,-0.12,-0.40,0.83,12
1510931,1.06,-6.93,5.88,0.21,-0.07,-0.07,15.50,18.00,-19.88,0.18,0.22,-0.14,1.07,-7.26,6.38,0.38,-0.12,-0.40,0.83,12
1510970,1.21,-6.79,6.57,0.21,-0.73,-0.58,12.62,17.81,-21.31,-0.01,0.32,-0.50,1.32,-7.17,6.42,0.38,-0.11,-0.40,0.83,12
1511011,1.98,-7.39,7.18,0.17,-0.67,-0.63,11.69,18.06,-22.12,-0.11,0.39,0.14,1.73,-7.09,6.41,0.39,-0.09,-0.40,0.82,12
1511051,1.59,-6.89,6.38,0.15,0.22,-0.16,9.19,17.19,-20.62,0.25,-0.30,0.77,1.81,-7.04,6.46,0.39,-0.08,-0.40,0.82,12
1511091,0.67,-6.40,5.54,-0.21,0.33,0.57,9.06,17.25,-21.38,-0.22,0.14,-0.09,1.62,-7.09,6.46,0.39,-0.08,-0.40,0.82,12
1511130,1.06,-6.36,6.14,-0.53,0.75,0.85,10.62,17.88,-20.06,-0.95,0.69,-0.93,1.25,-7.22,6.38,0.38,-0.10,-0.40,0.83,12
1511171,2.63,-9.27,9.82,0.39,0.49,-0.26,12.75,20.25,-22.50,-0.19,0.86,-0.23,1.26,-7.04,6.58,0.38,-0.10,-0.39,0.83,12
1511211,2.32,-7.66,7.37,4.22,-0.76,0.11,14.31,18.62,-22.25,1.37,-2.23,3.25,1.33,-6.53,7.07,0.38,-0.10,-0.38,0.84,12
1511251,1.09,-8.58,9.44,3.52,-0.65,-0.17,11.19,14.06,-24.94,0.99,-1.13,0.30,1.64,-5.22,8.03,0.38,-0.04,-0.30,0.87,12
1511291,1.75,-4.79,7.71,2.62,0.38,-0.31,9.06,8.19,-25.31,-0.55,-3.36,1.41,1.62,-4.38,8.52,0.39,-0.02,-0.26,0.88,12
1511332,1.55,-3.45,7.71,2.44,0.64,-0.33,8.81,3.44,-25.75,0.12,-0.41,-0.81,1.46,-3.45,8.97,0.40,-0.01,-0.21,0.89,12
1511372,1.13,-3.14,6.95,1.61,1.54,0.39,9.44,0.00,-25.19,0.09,-0.00,-1.25,0.98,-2.81,9.25,0.40,-0.01,-0.17,0.90,12
1511412,0.60,-3.37,7.79,2.02,1.53,0.32,11.50,-3.56,-25.44,0.15,-0.33,-2.30,0.41,-2.01,9.50,0.40,-0.02,-0.11,0.91,12
1511452,0.21,-2.64,9.78,1.34,2.39,-0.13,14.25,-5.69,-25.69,0.18,-1.36,-1.71,-0.45,-1.48,9.59,0.40,-0.04,-0.07,0.91,12
1511492,-0.86,-1.72,10.86,1.11,2.23,-0.29,16.38,-8.12,-24.94,0.67,-1.17,0.19,-1.32,-0.99,9.58,0.41,-0.08,-0.03,0.91,12
1511532,-2.43,-1.46,11.51,1.03,0.90,-0.24,21.50,-8.12,-23.56,0.46,-0.73,1.28,-1.77,-0.63,9.53,0.42,-0.10,0.00,0.90,12
1511572,-3.04,-1.76,10.75,1.91,-0.37,-0.46,17.75,-9.31,-23.62,-0.66,-0.82,1.98,-1.63,0.02,9.58,0.43,-0.08,0.03,0.90,12
1511612,-1.62,1.72,7.18,1.30,0.65,-0.91,19.44,-13.00,-21.06,-1.41,-1.78,1.16,-1.77,0.55,9.54,0.45,-0.07,0.06,0.89,12
1511652,-3.62,0.80,9.71,0.45,0.77,-0.73,18.94,-13.62,-21.44,0.14,1.17,-2.36,-2.11,0.70,9.45,0.46,-0.08,0.08,0.88,12
1511692,-3.46,0.88,9.86,0.74,-0.20,-0.28,22.62,-13.69,-20.25,-1.51,0.11,0.25,-2.16,0.95,9.43,0.47,-0.08,0.10,0.88,12
1511732,-2.50,1.65,8.45,0.44,-0.12,-0.12,22.62,-13.69,-20.25,-1.31,-0.07,0.43,-2.10,1.11,9.42,0.47,-0.07,0.10,0.87,12
1511772,-2.31,1.84,8.75,-0.20,0.22,-0.23,20.94,-15.38,-18.56,-0.40,0.54,-0.98,-2.17,1.09,9.41,0.47,-0.07,0.11,0.87,12
1511812,-2.96,1.99,8.55,-2.44,0.51,0.25,23.06,-14.56,-19.81,-0.14,0.75,-0.66,-2.31,0.44,9.42,0.47,-0.09,0.09,0.87,12
1511852,-2.35,0.84,8.45,-4.15,1.59,0.35,22.69,-11.25,-21.81,-0.65,1.55,-0.86,-2.79,-0.98,9.25,0.46,-0.14,0.04,0.88,12
1511892,-2.54,-1.50,9.21,-3.57,1.89,0.03,22.69,-11.25,-21.81,0.44,1.82,-0.80,-3.48,-2.36,8.75,0.44,-0.20,-0.02,0.87,12
1511932,-4.27,-3.75,9.13,-1.53,0.64,0.17,31.50,-1.88,-20.88,0.93,0.86,0.46,-3.80,-3.04,8.39,0.43,-0.25,-0.05,0.87,12
1511972,-4.27,-3.60,8.63,-0.17,-0.11,-0.01,31.81,1.62,-21.69,-0.46,-0.71,0.74,-3.83,-3.18,8.33,0.42,-0.26,-0.06,0.87,12
1512012,-4.00,-2.99,8.21,-0.20,-0.05,0.02,32.31,1.69,-21.62,-0.44,-0.42,0.31,-3.80,-3.22,8.32,0.42,-0.26,-0.06,0.87,12
1512052,-3.73,-2.99,8.21,-0.42,0.12,0.08,33.25,2.38,-21.94,-0.20,0.23,-0.11,-3.84,-3.34,8.26,0.42,-0.26,-0.07,0.87,12
1512092,-3.92,-3.45,8.37,-0.00,-0.02,0.00,32.19,2.81,-20.25,0.11,0.35,-0.04,-3.85,-3.37,8.23,0.42,-0.26,-0.07,0.87,12
1512132,-3.73,-3.33,8.33,0.07,0.08,0.03,32.81,1.12,-20.88,-0.07,-0.08,0.13,-3.87,-3.34,8.24,0.42,-0.26,-0.07,0.87,12
1512172,-3.96,-3.26,8.18,0.00,0.08,0.04,30.50,2.50,-22.31,0.14,0.01,0.09,-3.91,-3.34,8.23,0.42,-0.27,-0.07,0.87,12
1512212,-4.15,-3.18,8.14,-0.00,-0.03,0.00,31.25,0.75,-21.69,-0.05,0.08,-0.05,-3.91,-3.33,8.23,0.42,-0.27,-0.07,0.87,12
1512252,-3.92,-3.22,8.25,0.01,-0.01,0.00,33.31,2.38,-21.56,-0.25,0.15,-0.09,-3.90,-3.32,8.23,0.42,-0.27,-0.07,0.87,12
1512292,-3.81,-3.29,8.25,-0.02,0.09,0.03,33.38,3.00,-21.56,-0.02,0.10,0.02,-3.92,-3.32,8.23,0.42,-0.27,-0.07,0.87,12
1512333,-4.08,-3.26,8.13,0.00,0.08,0.02,32.50,1.62,-20.50,0.11,0.03,0.03,-3.95,-3.31,8.21,0.42,-0.27,-0.07,0.87,12
1512373,-4.19,-3.22,8.14,0.20,-0.09,-0.01,31.88,1.94,-21.69,-0.12,0.05,-0.07,-3.94,-3.27,8.23,0.42,-0.27,-0.07,0.87,12
1512414,-3.85,-3.14,8.18,0.05,-0.00,0.02,31.94,2.25,-21.38,-0.25,0.05,-0.10,-3.93,-3.23,8.26,0.42,-0.26,-0.06,0.87,12
1512453,-4.00,-3.18,8.25,0.12,0.02,0.02,32.94,2.94,-21.62,0.08,0.09,-0.08,-3.94,-3.20,8.27,0.42,-0.26,-0.06,0.87,12
1512493,-4.11,-3.07,8.17,0.06,-0.03,0.01,34.06,1.25,-21.06,-0.06,0.02,-0.01,-3.94,-3.16,8.27,0.42,-0.26,-0.06,0.87,12
1512533,-3.96,-3.10,8.25,0.21,0.00,0.02,33.06,2.12,-22.62,-0.18,0.10,-0.10,-3.94,-3.12,8.30,0.42,-0.26,-0.06,0.87,12
1512574,-4.00,-2.91,8.21,0.09,0.05,0.04,31.81,1.38,-21.69,-0.02,0.02,-0.04,-3.96,-3.06,8.30,0.42,-0.26,-0.06,0.87,12
1512613,-4.11,-2.91,8.21,0.03,0.04,0.02,32.38,1.69,-21.31,-0.04,0.15,-0.09,-3.98,-3.04,8.30,0.42,-0.26,-0.05,0.87,12
1512653,-4.15,-2.88,8.18,-0.02,-0.01,0.02,32.81,2.00,-21.56,-0.14,0.13,-0.08,-3.98,-3.05,8.30,0.42,-0.26,-0.05,0.87,12
1512693,-4.08,-3.18,8.45,0.30,-0.10,0.02,32.62,0.25,-21.19,-0.17,0.17,-0.12,-3.95,-2.95,8.34,0.42,-0.26,-0.05,0.87,12
1512735,-3.92,-2.68,8.21,0.31,0.04,0.06,32.19,0.81,-21.62,-0.12,-0.23,0.10,-3.98,-2.84,8.37,0.42,-0.26,-0.05,0.87,12
1512773,-4.19,-2.45,8.10,0.08,-0.04,-0.03,30.88,0.12,-21.06,0.05,0.16,-0.15,-3.97,-2.80,8.39,0.42,-0.26,-0.04,0.87,12
1512813,-4.23,-2.68,8.25,-0.03,-0.07,0.02,31.62,-1.00,-20.88,-0.22,0.34,-0.29,-3.95,-2.80,8.40,0.42,-0.25,-0.04,0.87,12
1512853,-3.96,-2.76,8.41,0.00,0.05,0.06,32.00,0.00,-22.31,-0.29,0.11,-0.14,-3.96,-2.79,8.40,0.42,-0.25,-0.04,0.87,12
1512895,-4.11,-2.64,8.33,0.06,0.02,0.04,32.12,-0.69,-20.88,0.00,0.03,0.01,-3.98,-2.77,8.39,0.42,-0.25,-0.04,0.87,12
1512933,-4.08,-2.53,8.21,-0.04,0.00,0.01,32.56,-0.31,-21.12,-0.14,0.12,-0.06,-3.98,-2.76,8.39,0.42,-0.25,-0.04,0.87,12
1514716,-3.23,-4.10,8.18,-0.03,0.00,0.02,33.19,5.12,-24.25,-0.09,0.23,-0.18,-3.27,-4.05,8.16,0.40,-0.25,-0.13,0.87,12
1514758,-3.31,-4.06,8.09,0.00,0.01,0.02,35.12,6.44,-24.12,0.03,-0.04,0.01,-3.27,-4.06,8.16,0.40,-0.25,-0.13,0.87,12
1514796,-3.20,-4.02,8.09,-0.01,0.02,-0.01,35.12,6.62,-21.56,-0.04,0.00,-0.07,-3.27,-4.08,8.16,0.40,-0.25,-0.13,0.87,12
1514836,-3.31,-4.10,8.13,-0.03,0.02,-0.01,35.06,6.44,-24.44,0.08,0.05,-0.06,-3.27,-4.08,8.14,0.40,-0.25,-0.13,0.87,12
1514876,-3.31,-4.14,8.18,-0.01,0.01,0.01,34.25,5.19,-23.06,-0.04,-0.02,-0.00,-3.27,-4.09,8.14,0.40,-0.25,-0.13,0.87,12
1514918,-3.31,-4.06,8.09,-0.03,0.03,-0.02,33.38,5.38,-23.50,-0.04,-0.05,0.04,-3.29,-4.09,8.12,0.40,-0.25,-0.13,0.87,12
1514957,-3.27,-4.10,8.09,-0.02,0.00,-0.02,35.75,5.50,-22.50,-0.02,0.03,-0.03,-3.29,-4.10,8.12,0.40,-0.25,-0.13,0.87,12
1514997,-3.31,-4.14,8.13,-0.02,0.02,-0.01,35.00,5.25,-24.06,0.02,0.00,-0.02,-3.29,-4.12,8.12,0.40,-0.25,-0.13,0.87,12
1515037,-3.31,-4.14,8.18,-0.01,0.01,-0.01,34.75,6.06,-23.38,-0.02,-0.02,0.02,-3.29,-4.12,8.11,0.40,-0.25,-0.13,0.87,12
1515077,-3.31,-4.10,8.13,-0.02,-0.00,-0.02,34.19,5.75,-23.75,-0.02,-0.02,0.07,-3.29,-4.13,8.11,0.40,-0.25,-0.13,0.87,12
1515117,-3.31,-4.14,8.09,-0.01,0.00,-0.01,34.31,5.12,-22.62,-0.02,0.04,0.03,-3.29,-4.13,8.12,0.40,-0.25,-0.13,0.87,12
1515157,-3.31,-4.18,8.14,-0.01,0.01,-0.01,35.19,6.44,-23.69,-0.02,-0.00,-0.02,-3.29,-4.14,8.11,0.40,-0.25,-0.13,0.87,12
1515197,-3.23,-4.10,8.09,-0.00,-0.01,-0.01,35.50,5.56,-24.00,-0.02,-0.04,0.03,-3.28,-4.14,8.11,0.40,-0.25,-0.13,0.87,12
1515237,-3.20,-4.14,8.06,0.00,0.01,-0.00,35.31,6.38,-23.00,0.05,0.04,-0.01,-3.28,-4.14,8.12,0.40,-0.25,-0.13,0.87,12
1515277,-3.23,-4.06,8.07,0.00,-0.03,-0.01,33.44,5.62,-23.19,0.09,0.00,-0.05,-3.27,-4.15,8.12,0.40,-0.25,-0.13,0.87,12
1515317,-3.12,-4.21,8.07,0.01,-0.01,0.01,35.94,6.19,-24.69,0.04,0.09,-0.05,-3.27,-4.14,8.11,0.40,-0.25,-0.13,0.87,12
1515357,-3.39,-4.18,8.09,0.01,0.03,0.00,34.19,6.38,-24.19,0.16,-0.07,-0.05,-3.27,-4.14,8.11,0.40,-0.25,-0.13,0.87,12
1515397,-3.31,-4.06,8.18,-0.01,-0.03,-0.00,34.25,6.00,-23.44,-0.11,-0.04,-0.01,-3.27,-4.15,8.11,0.40,-0.25,-0.13,0.87,12
1515437,-3.35,-4.14,8.06,0.00,0.04,0.02,34.38,6.00,-22.75,-0.04,0.09,0.07,-3.27,-4.14,8.12,0.40,-0.25,-0.13,0.87,12
1515477,-3.31,-4.18,8.21,0.00,-0.03,-0.00,34.00,6.31,-23.12,-0.07,0.00,-0.05,-3.27,-4.14,8.12,0.40,-0.25,-0.13,0.87,12
1515517,-3.23,-4.10,8.18,-0.00,0.02,0.01,33.81,6.00,-23.81,-0.04,-0.04,0.10,-3.27,-4.14,8.12,0.40,-0.25,-0.13,0.87,12
1515557,-3.27,-4.14,8.02,-0.01,-0.02,-0.01,34.12,5.75,-24.19,0.04,0.04,0.06,-3.27,-4.14,8.12,0.40,-0.25,-0.13,0.87,12
1515597,-3.27,-4.18,8.14,-0.01,-0.02,0.00,33.50,5.31,-22.75,-0.01,0.00,-0.09,-3.26,-4.15,8.12,0.40,-0.25,-0.13,0.87,12
1515637,-3.23,-4.14,8.13,-0.00,0.02,0.00,35.56,5.56,-23.62,-0.02,-0.03,0.02,-3.27,-4.15,8.12,0.40,-0.25,-0.13,0.87,12
1515677,-3.31,-4.18,8.06,-0.00,-0.02,-0.01,35.25,6.06,-23.00,0.03,0.01,0.02,-3.27,-4.16,8.12,0.40,-0.25,-0.13,0.87,12
1515717,-3.27,-4.18,8.10,-0.00,0.01,0.00,35.19,6.75,-24.12,-0.04,-0.02,-0.05,-3.27,-4.16,8.12,0.40,-0.25,-0.13,0.87,12
1515757,-3.23,-4.14,8.09,-0.00,-0.01,0.01,34.25,6.06,-23.81,-0.01,-0.02,-0.02,-3.27,-4.16,8.12,0.40,-0.25,-0.13,0.87,12
1515797,-3.20,-4.18,8.09,0.01,0.02,0.02,33.25,4.50,-23.50,0.03,0.02,-0.02,-3.27,-4.16,8.12,0.40,-0.25,-0.13,0.87,12
1515837,-3.27,-4.14,8.09,-0.01,0.02,0.01,34.88,6.50,-25.56,0.08,-0.02,-0.02,-3.28,-4.16,8.11,0.40,-0.25,-0.13,0.87,12
1515877,-3.35,-4.14,8.14,-0.00,0.00,0.01,34.69,5.44,-23.38,0.01,0.02,-0.01,-3.28,-4.16,8.11,0.40,-0.25,-0.13,0.87,12
1515917,-3.20,-4.18,8.07,-0.00,-0.00,0.01,34.75,5.75,-23.00,-0.07,0.02,0.03,-3.28,-4.16,8.11,0.40,-0.25,-0.13,0.87,12
1515958,-3.31,-4.18,8.14,0.00,0.02,0.01,34.31,7.19,-24.25,0.09,-0.02,-0.05,-3.28,-4.16,8.09,0.40,-0.25,-0.13,0.87,12
1515998,-3.35,-4.14,8.17,-0.01,-0.01,-0.01,33.81,6.00,-23.81,-0.03,-0.02,0.04,-3.28,-4.16,8.11,0.40,-0.25,-0.13,0.87,12
1516038,-3.23,-4.14,8.09,-0.01,0.00,0.00,35.31,7.25,-23.75,-0.07,0.02,0.07,-3.28,-4.16,8.11,0.40,-0.25,-0.13,0.87,12
1516078,-3.31,-4.18,8.14,0.00,-0.01,0.00,33.81,5.38,-23.44,0.05,0.02,-0.01,-3.28,-4.16,8.11,0.40,-0.25,-0.13,0.87,12
1516118,-3.27,-4.14,8.13,-0.00,0.00,-0.00,34.19,5.19,-23.44,-0.03,-0.02,0.03,-3.30,-4.16,8.11,0.40,-0.25,-0.13,0.87,12
1516158,-3.27,-4.14,8.09,-0.00,-0.01,-0.01,33.88,6.00,-23.50,0.02,0.02,0.03,-3.29,-4.16,8.11,0.40,-0.25,-0.13,0.87,12
1516199,-3.23,-4.14,8.02,-0.01,-0.00,-0.01,32.19,4.12,-23.94,0.02,0.03,-0.01,-3.28,-4.16,8.10,0.40,-0.25,-0.13,0.87,12
1516238,-3.27,-4.14,8.09,0.01,-0.02,-0.01,34.31,7.19,-24.25,0.05,0.02,-0.08,-3.28,-4.16,8.11,0.40,-0.25,-0.13,0.87,12
1516278,-3.20,-4.18,8.02,-0.00,-0.00,0.00,35.81,7.06,-23.31,0.01,0.03,-0.01,-3.28,-4.16,8.11,0.40,-0.25,-0.13,0.87,12
1516318,-3.31,-4.18,8.06,0.01,0.02,0.00,35.69,6.44,-23.62,0.09,-0.01,-0.09,-3.28,-4.16,8.10,0.40,-0.25,-0.13,0.87,12
1516359,-3.31,-4.14,8.18,-0.01,-0.01,-0.00,34.56,6.44,-24.88,-0.03,-0.01,-0.04,-3.28,-4.16,8.10,0.40,-0.25,-0.13,0.87,12
1516398,-3.27,-4.18,8.10,0.00,0.02,0.01,34.50,4.00,-23.31,-0.03,0.03,0.07,-3.28,-4.16,8.10,0.40,-0.25,-0.13,0.87,12
1516438,-3.31,-4.14,8.09,0.00,-0.02,-0.00,35.50,6.19,-24.38,0.01,-0.01,-0.00,-3.28,-4.16,8.10,0.40,-0.25,-0.13,0.87,12
1516478,-3.20,-4.18,8.13,0.00,0.02,0.00,34.25,5.44,-23.06,-0.03,0.03,-0.00,-3.28,-4.16,8.10,0.40,-0.25,-0.13,0.87,12
1516518,-3.31,-4.18,8.10,0.00,-0.01,-0.00,34.12,5.75,-24.19,0.09,-0.01,0.04,-3.27,-4.16,8.11,0.40,-0.25,-0.13,0.87,12
1516558,-3.27,-4.14,8.09,-0.00,0.01,-0.00,34.69,5.75,-23.75,-0.04,-0.01,-0.01,-3.27,-4.16,8.11,0.40,-0.25,-0.13,0.87,12
1516598,-3.27,-4.18,8.10,-0.00,-0.01,-0.00,35.44,5.31,-24.00,0.00,0.03,-0.01,-3.27,-4.16,8.11,0.40,-0.25,-0.13,0.87,12
1516638,-3.31,-4.18,8.10,-0.01,-0.01,-0.01,32.81,5.94,-24.38,0.00,-0.01,-0.01,-3.27,-4.17,8.11,0.40,-0.25,-0.13,0.87,12
1516678,-3.27,-4.18,8.10,0.00,0.00,-0.01,33.94,6.31,-23.50,-0.04,-0.00,-0.01,-3.27,-4.17,8.11,0.40,-0.25,-0.13,0.87,12
1516718,-3.27,-4.18,8.10,0.00,-0.00,-0.00,35.38,6.69,-23.00,-0.01,-0.00,-0.01,-3.27,-4.17,8.10,0.40,-0.25,-0.13,0.87,12
1516758,-3.23,-4.14,8.07,0.00,-0.00,0.00,34.50,5.50,-24.50,0.00,-0.00,-0.00,-3.27,-4.17,8.10,0.40,-0.25,-0.13,0.87,12
1516798,-3.27,-4.18,8.17,0.00,0.01,0.01,35.56,5.56,-23.62,0.04,0.04,-0.04,-3.27,-4.17,8.10,0.40,-0.25,-0.13,0.87,12
1516839,-3.35,-4.14,8.06,0.00,-0.02,-0.00,34.56,5.50,-24.12,0.00,-0.00,0.07,-3.27,-4.16,8.11,0.40,-0.25,-0.13,0.87,12
1516879,-3.31,-4.21,8.13,-0.04,0.02,0.00,35.88,5.06,-24.25,-0.07,0.03,-0.05,-3.28,-4.17,8.09,0.40,-0.25,-0.13,0.87,12
1516919,-3.35,-4.14,8.14,-0.01,-0.01,-0.00,34.38,6.31,-23.12,-0.03,-0.04,0.05,-3.28,-4.17,8.09,0.40,-0.25,-0.13,0.87,12
1516959,-3.16,-4.18,8.06,0.00,-0.01,-0.00,35.00,4.94,-23.62,-0.07,0.04,0.04,-3.27,-4.16,8.10,0.40,-0.25,-0.13,0.87,12
1517000,-3.31,-4.18,8.06,0.00,0.01,0.00,35.00,4.94,-23.62,0.12,-0.01,-0.04,-3.28,-4.17,8.10,0.40,-0.25,-0.13,0.87,12
1517039,-3.23,-4.18,8.14,-0.01,-0.01,-0.01,34.31,6.94,-23.81,-0.03,-0.00,-0.04,-3.27,-4.17,8.10,0.40,-0.25,-0.13,0.87,12
1517080,-3.27,-4.18,8.06,-0.00,0.00,-0.00,34.56,5.81,-24.50,0.04,-0.00,0.04,-3.27,-4.17,8.10,0.40,-0.25,-0.13,0.87,12
1517120,-3.23,-4.18,8.06,0.00,-0.01,-0.00,34.69,6.06,-23.75,0.00,-0.00,-0.04,-3.27,-4.17,8.10,0.40,-0.25,-0.13,0.87,12
1517160,-3.27,-4.18,8.14,-0.00,-0.00,-0.01,34.69,6.06,-23.75,0.03,-0.00,-0.04,-3.27,-4.17,8.10,0.40,-0.25,-0.13,0.87,12
1517199,-3.23,-4.21,8.07,-0.01,-0.01,-0.00,34.25,6.31,-23.81,-0.01,-0.00,0.04,-3.27,-4.18,8.10,0.40,-0.25,-0.13,0.87,12
1517240,-3.23,-4.21,8.07,0.00,0.01,0.01,34.25,6.94,-24.25,0.03,-0.04,-0.04,-3.27,-4.18,8.10,0.40,-0.25,-0.13,0.87,12
1517280,-3.27,-4.18,8.10,0.00,0.00,0.00,34.19,5.19,-23.44,0.03,-0.04,-0.04,-3.27,-4.17,8.10,0.40,-0.25,-0.13,0.87,12
1517320,-3.27,-4.18,8.10,0.00,0.00,0.00,32.94,5.62,-23.56,-0.01,-0.00,-0.00,-3.27,-4.18,8.09,0.40,-0.25,-0.13,0.87,12
1517360,-3.27,-4.18,8.06,-0.00,0.01,0.00,34.75,5.75,-23.00,-0.01,0.00,0.00,-3.27,-4.18,8.09,0.40,-0.25,-0.13,0.87,12
1517400,-3.23,-4.18,8.10,0.00,-0.00,0.00,33.38,5.38,-23.50,-0.01,0.00,-0.03,-3.27,-4.18,8.09,0.40,-0.25,-0.13,0.87,12
1517440,-3.23,-4.18,8.10,-0.00,-0.01,-0.00,35.38,6.38,-22.56,0.03,0.00,0.00,-3.26,-4.18,8.09,0.40,-0.25,-0.13,0.87,12
1517480,-3.27,-4.18,8.10,0.00,0.01,0.00,34.50,4.94,-24.12,0.02,0.00,0.01,-3.27,-4.18,8.09,0.40,-0.25,-0.13,0.87,12
1517520,-3.23,-4.18,8.10,-0.00,-0.01,0.00,34.12,5.44,-23.75,-0.01,0.00,0.01,-3.26,-4.17,8.09,0.40,-0.25,-0.13,0.87,12
1517560,-3.27,-4.18,8.10,0.00,0.00,0.00,36.00,6.19,-24.31,0.02,-0.00,0.00,-3.26,-4.17,8.09,0.40,-0.25,-0.13,0.87,12
1517600,-3.31,-4.18,8.06,0.00,0.00,-0.01,33.94,6.94,-23.88,-0.02,-0.00,0.00,-3.27,-4.18,8.09,0.40,-0.25,-0.13,0.87,12
1517640,-3.31,-4.18,8.06,-0.00,-0.01,-0.00,32.88,6.56,-24.38,-0.04,0.00,-0.03,-3.27,-4.18,8.09,0.40,-0.25,-0.13,0.87,12
1517681,-3.31,-4.18,8.10,0.00,0.01,0.00,35.69,5.50,-22.88,-0.04,0.00,-0.03,-3.27,-4.17,8.09,0.40,-0.25,-0.13,0.87,12
1517720,-3.27,-4.18,8.06,0.00,0.01,0.00,34.25,6.31,-23.81,-0.04,-0.00,0.01,-3.28,-4.17,8.09,0.40,-0.25,-0.13,0.87,12
1517760,-3.23,-4.18,8.10,0.00,0.00,0.01,35.31,6.69,-23.38,0.01,-0.00,-0.02,-3.28,-4.17,8.09,0.40,-0.25,-0.13,0.87,12
1517800,-3.27,-4.18,8.10,0.00,0.03,0.02,34.69,5.75,-23.75,0.05,-0.00,0.01,-3.29,-4.17,8.09,0.40,-0.25,-0.13,0.87,12
1517841,-3.31,-4.18,8.10,-0.01,0.01,0.01,35.31,6.69,-23.38,0.02,-0.00,0.01,-3.30,-4.18,8.08,0.40,-0.25,-0.13,0.87,12
1517880,-3.27,-4.18,8.10,-0.01,0.00,-0.00,34.25,6.00,-23.44,-0.01,0.00,0.02,-3.30,-4.17,8.09,0.40,-0.26,-0.13,0.87,12
1517920,-3.27,-4.18,8.10,0.00,0.02,0.01,35.56,5.31,-23.56,0.02,-0.00,0.01,-3.30,-4.17,8.09,0.40,-0.26,-0.13,0.87,12
1517960,-3.35,-4.18,8.07,0.00,0.00,0.01,35.19,5.81,-23.31,0.02,-0.00,0.01,-3.30,-4.17,8.08,0.40,-0.26,-0.13,0.87,12
1518002,-3.31,-4.18,8.06,0.01,0.00,-0.00,34.50,6.94,-22.69,-0.04,-0.00,-0.02,-3.30,-4.17,8.09,0.40,-0.26,-0.13,0.87,12
1518041,-3.35,-4.21,8.06,-0.01,-0.00,-0.00,34.88,5.75,-22.25,-0.00,-0.00,-0.02,-3.30,-4.17,8.09,0.40,-0.26,-0.13,0.87,12
1518081,-3.35,-4.21,8.06,-0.00,-0.01,-0.01,33.88,5.69,-23.50,-0.04,-0.04,-0.02,-3.30,-4.18,8.09,0.40,-0.26,-0.13,0.87,12
1518121,-3.23,-4.21,8.09,0.00,-0.00,0.01,33.88,6.62,-23.88,-0.04,-0.04,-0.02,-3.30,-4.18,8.09,0.40,-0.26,-0.13,0.87,12
1518163,-3.35,-4.18,8.07,-0.00,-0.00,-0.01,34.69,5.19,-23.00,0.07,-0.04,0.01,-3.30,-4.19,8.09,0.40,-0.26,-0.13,0.87,12
1518201,-3.27,-4.14,8.07,-0.05,-0.01,-0.02,35.38,5.75,-22.19,-0.05,0.01,-0.02,-3.30,-4.20,8.08,0.40,-0.25,-0.13,0.87,12
1518241,-3.23,-4.21,8.07,-0.04,0.02,-0.02,34.69,6.69,-24.19,0.02,0.06,-0.02,-3.30,-4.22,8.06,0.40,-0.26,-0.13,0.87,12
1518281,-3.39,-4.25,8.06,-0.04,0.01,-0.02,33.88,5.69,-23.50,0.07,0.00,0.00,-3.30,-4.25,8.05,0.40,-0.26,-0.13,0.87,12
1518323,-3.27,-4.29,8.03,-0.07,0.03,-0.04,36.69,6.50,-23.19,-0.08,-0.00,0.02,-3.31,-4.27,8.03,0.40,-0.26,-0.14,0.87,12
1518361,-3.35,-4.29,7.99,-0.05,0.04,-0.03,35.25,6.06,-23.00,0.04,-0.02,-0.01,-3.32,-4.30,8.02,0.40,-0.26,-0.14,0.87,12
1518401,-3.39,-4.33,7.99,-0.02,0.02,-0.01,35.31,7.00,-23.38,-0.03,0.01,-0.03,-3.33,-4.30,8.01,0.40,-0.26,-0.14,0.87,12
1518441,-3.31,-4.29,8.03,-0.01,0.02,-0.01,33.56,7.12,-23.56,-0.06,-0.02,-0.02,-3.34,-4.30,8.00,0.40,-0.26,-0.14,0.87,12
1518481,-3.35,-4.33,7.99,-0.01,0.02,-0.00,36.25,6.19,-22.88,0.03,0.02,0.02,-3.34,-4.30,8.00,0.40,-0.26,-0.14,0.87,12
1518521,-3.39,-4.29,7.99,-0.01,-0.00,-0.01,33.81,6.00,-23.88,-0.01,-0.02,-0.02,-3.34,-4.31,8.00,0.40,-0.26,-0.14,0.87,12
1518561,-3.31,-4.29,7.98,-0.01,-0.00,-0.01,34.81,6.38,-23.38,-0.05,0.02,-0.02,-3.34,-4.32,8.00,0.40,-0.26,-0.14,0.87,12
1518601,-3.31,-4.33,7.98,-0.01,0.01,-0.00,34.50,7.19,-23.12,0.04,0.03,-0.02,-3.34,-4.32,7.99,0.40,-0.26,-0.14,0.87,12
1518641,-3.35,-4.33,8.02,-0.01,0.01,-0.01,35.06,7.19,-22.31,0.04,-0.01,-0.01,-3.34,-4.32,7.98,0.40,-0.26,-0.14,0.87,12
1518681,-3.27,-4.33,8.03,-0.01,-0.00,-0.01,34.94,6.62,-22.62,-0.00,-0.01,0.04,-3.34,-4.33,7.99,0.40,-0.26,-0.14,0.87,12
1518721,-3.35,-4.37,7.99,-0.01,0.02,-0.00,36.19,7.38,-24.00,0.07,0.00,0.03,-3.34,-4.33,7.98,0.40,-0.26,-0.14,0.87,12
1518761,-3.35,-4.33,7.99,-0.06,0.06,-0.04,33.94,6.62,-23.50,-0.00,-0.04,0.00,-3.36,-4.36,7.96,0.40,-0.26,-0.14,0.87,12
1518801,-3.27,-4.33,7.95,-0.08,0.08,-0.04,34.88,6.69,-23.06,0.01,0.03,0.02,-3.37,-4.39,7.95,0.40,-0.26,-0.14,0.87,12
1518841,-3.43,-4.41,7.91,-0.05,0.07,-0.04,34.19,7.44,-22.75,0.09,0.06,0.00,-3.38,-4.41,7.92,0.40,-0.27,-0.14,0.87,12
1518881,-3.35,-4.45,7.95,-0.07,0.05,-0.03,36.44,7.62,-22.50,-0.04,0.00,-0.02,-3.39,-4.43,7.90,0.40,-0.27,-0.14,0.87,12
1518921,-3.43,-4.45,7.91,-0.07,0.07,-0.02,35.06,8.44,-23.12,0.04,-0.02,0.05,-3.40,-4.46,7.88,0.40,-0.27,-0.14,0.86,12
1518961,-3.46,-4.45,7.91,0.00,0.01,-0.03,35.31,6.69,-23.38,-0.03,0.02,0.02,-3.41,-4.47,7.89,0.40,-0.27,-0.14,0.86,12
1519001,-3.39,-4.45,7.87,-0.04,0.01,-0.04,35.94,7.00,-22.56,-0.06,0.02,0.02,-3.41,-4.48,7.88,0.40,-0.27,-0.14,0.86,12
1519041,-3.39,-4.52,7.87,-0.06,0.03,-0.04,36.12,8.50,-22.25,0.03,0.04,-0.00,-3.41,-4.50,7.87,0.40,-0.27,-0.14,0.86,12
1519082,-3.39,-4.52,7.83,-0.07,0.04,-0.04,35.44,7.25,-23.00,0.03,-0.02,0.00,-3.41,-4.53,7.85,0.40,-0.27,-0.14,0.86,12
1519123,-3.43,-4.52,7.83,-0.07,0.00,-0.03,35.50,8.19,-23.06,0.03,0.01,-0.02,-3.41,-4.55,7.83,0.40,-0.27,-0.15,0.86,12
1519162,-3.35,-4.60,7.83,-0.05,0.01,-0.01,35.25,6.88,-21.19,-0.02,0.04,0.00,-3.41,-4.57,7.82,0.40,-0.27,-0.15,0.86,12
1519202,-3.50,-4.60,7.75,-0.03,0.03,0.00,35.06,7.06,-24.81,0.06,-0.03,0.01,-3.42,-4.58,7.81,0.40,-0.27,-0.15,0.86,12
1519242,-3.43,-4.56,7.83,-0.01,-0.00,-0.02,36.94,7.94,-22.44,-0.08,-0.02,-0.06,-3.41,-4.59,7.80,0.40,-0.27,-0.15,0.86,12
1519283,-3.39,-4.60,7.83,0.01,0.02,0.01,34.12,7.44,-23.19,-0.01,0.03,0.03,-3.42,-4.59,7.81,0.40,-0.27,-0.15,0.86,12
1519322,-3.50,-4.56,7.75,0.03,-0.08,-0.03,35.69,7.81,-21.94,0.04,-0.01,0.02,-3.39,-4.58,7.82,0.40,-0.27,-0.15,0.86,12
1519362,-3.31,-4.60,7.91,0.11,-0.14,0.01,36.06,7.88,-22.25,-0.11,0.02,-0.07,-3.37,-4.54,7.85,0.40,-0.27,-0.15,0.86,12
1519402,-3.31,-4.60,7.87,0.16,-0.08,0.04,36.38,6.44,-22.12,0.06,-0.06,0.05,-3.34,-4.49,7.88,0.40,-0.27,-0.15,0.86,12
1519443,-3.50,-4.41,7.79,0.16,-0.11,-0.05,36.25,7.06,-23.25,0.04,-0.11,-0.01,-3.30,-4.44,7.94,0.40,-0.27,-0.14,0.86,12
1519482,-3.08,-4.45,8.03,0.18,-0.18,-0.00,34.50,6.62,-22.69,-0.20,0.03,-0.14,-3.24,-4.38,7.99,0.40,-0.26,-0.14,0.86,12
1519522,-3.12,-4.41,8.03,0.12,-0.06,0.02,34.69,5.75,-23.75,0.16,-0.06,0.03,-3.23,-4.34,8.02,0.41,-0.26,-0.14,0.87,12
1519562,-3.31,-4.33,8.03,0.12,-0.10,0.02,35.31,6.69,-23.38,0.11,-0.06,0.01,-3.20,-4.30,8.05,0.41,-0.26,-0.14,0.87,12
1519603,-3.20,-4.29,8.07,0.13,-0.11,0.03,33.75,5.38,-23.81,-0.11,-0.02,-0.03,-3.16,-4.26,8.10,0.41,-0.25,-0.14,0.87,12
1519643,-3.50,-4.18,8.06,0.13,0.10,0.07,34.25,6.00,-23.44,-0.04,-0.03,-0.04,-3.16,-4.21,8.12,0.40,-0.25,-0.14,0.87,12
1519682,-3.31,-4.18,8.10,0.09,-0.14,-0.01,34.69,5.75,-23.38,-0.34,0.04,-0.06,-3.12,-4.19,8.16,0.40,-0.25,-0.13,0.87,12
1519722,-2.96,-4.14,8.17,0.14,-0.05,0.01,35.56,6.50,-24.38,-0.19,0.01,-0.06,-3.07,-4.15,8.19,0.40,-0.25,-0.13,0.87,12
1519763,-2.89,-4.29,8.25,0.49,-0.36,-0.06,33.25,6.00,-24.62,0.11,0.01,-0.01,-2.94,-3.99,8.31,0.41,-0.24,-0.13,0.87,12
1519803,-3.35,-3.68,8.21,0.59,-0.06,-0.00,33.81,5.12,-23.44,0.05,-0.30,-0.06,-2.91,-3.80,8.41,0.41,-0.23,-0.12,0.87,12
1519843,-2.93,-3.60,8.33,0.20,-0.11,0.05,30.88,4.62,-24.56,-0.44,0.13,-0.20,-2.88,-3.73,8.46,0.41,-0.22,-0.12,0.88,12
1519883,-2.70,-3.68,8.45,-0.08,0.06,0.00,31.62,3.50,-24.38,-0.05,0.12,-0.13,-2.88,-3.74,8.45,0.41,-0.22,-0.12,0.88,12
1519923,-2.96,-3.75,8.45,-0.05,0.01,-0.02,31.56,4.75,-25.56,0.19,0.07,-0.01,-2.88,-3.74,8.45,0.41,-0.22,-0.12,0.88,12
1519963,-2.73,-3.64,8.41,0.21,-0.21,0.01,31.69,3.25,-23.62,-0.09,-0.01,-0.01,-2.81,-3.69,8.50,0.41,-0.22,-0.11,0.88,12
1520003,-2.85,-3.87,8.67,0.16,0.01,-0.01,30.25,4.00,-25.25,0.08,0.05,-0.09,-2.76,-3.52,8.59,0.41,-0.22,-0.11,0.88,12
1520043,-3.96,-5.52,10.44,3.64,-1.75,0.49,29.50,1.94,-25.25,-0.09,-0.36,0.09,-2.23,-2.36,9.12,0.41,-0.19,-0.09,0.89,12
1520083,-1.36,-1.30,7.64,1.76,-1.53,-0.10,27.06,-2.88,-25.69,-1.73,-3.16,1.32,-1.70,-1.70,9.38,0.42,-0.13,-0.05,0.90,12
1520124,-1.01,-1.30,9.21,-0.12,0.24,-0.75,22.56,-5.81,-26.50,0.34,0.39,-1.74,-1.71,-1.79,9.36,0.43,-0.11,-0.04,0.90,12
1520164,-2.35,-0.80,7.45,-1.84,0.64,-1.05,24.19,-3.94,-26.38,0.70,0.49,-0.15,-1.89,-2.55,9.15,0.44,-0.13,-0.06,0.89,12
1520204,-4.00,-2.03,7.45,-4.48,0.37,-1.00,26.31,0.00,-27.06,-0.46,1.75,-1.70,-1.91,-3.84,8.67,0.45,-0.17,-0.10,0.87,12
1520244,-2.35,-8.50,12.82,0.29,-0.52,-0.21,27.38,4.75,-26.75,-2.09,1.80,-1.22,-1.63,-3.71,8.79,0.45,-0.17,-0.13,0.87,12
1520284,-0.90,-3.03,8.03,0.57,-0.13,0.13,25.56,4.00,-26.62,-0.72,-4.79,4.02,-1.49,-3.55,8.88,0.45,-0.16,-0.14,0.87,12
1520324,-0.86,-4.29,9.79,0.35,-0.69,0.12,26.25,3.19,-26.88,0.59,0.52,-0.86,-1.27,-3.42,8.96,0.44,-0.15,-0.13,0.88,12
1520364,-1.62,-3.56,9.32,0.12,-0.15,0.13,26.12,2.94,-27.56,0.41,-0.87,0.82,-1.22,-3.34,9.00,0.44,-0.14,-0.13,0.88,12
1520404,-1.43,-1.91,6.91,0.30,-0.80,-0.72,26.12,2.94,-27.56,-0.41,-0.22,0.32,-0.89,-3.19,9.09,0.44,-0.13,-0.13,0.88,12
1520444,-0.02,-4.37,11.36,0.09,-1.86,-0.15,21.56,2.00,-27.75,-0.54,1.27,-2.18,-0.22,-3.17,9.13,0.44,-0.10,-0.14,0.88,12
1520484,0.68,-3.22,9.44,0.05,-0.41,-0.05,18.06,2.56,-27.88,0.20,-1.20,2.22,-0.04,-3.18,9.13,0.44,-0.08,-0.15,0.88,12
1520524,0.10,-3.56,9.74,-0.20,0.04,0.06,17.25,3.12,-27.94,0.71,-0.04,0.31,-0.05,-3.26,9.12,0.44,-0.08,-0.15,0.88,12
1520564,-0.17,-3.37,9.09,-0.20,0.12,0.04,17.25,3.12,-27.94,0.15,-0.30,0.63,-0.09,-3.34,9.09,0.44,-0.08,-0.15,0.88,12
1520604,-0.13,-3.41,9.13,-0.07,0.05,0.02,20.50,4.25,-27.56,-0.07,-0.03,0.01,-0.11,-3.38,9.06,0.44,-0.08,-0.16,0.88,12
1520644,-0.32,-3.37,8.83,-0.07,-0.01,-0.02,19.44,3.00,-28.06,-0.02,-0.03,0.07,-0.11,-3.44,9.05,0.44,-0.08,-0.16,0.88,12
1520684,-0.40,-3.29,8.71,-0.19,-0.36,0.05,21.12,4.81,-26.88,-0.21,0.07,-0.22,-0.06,-3.52,9.01,0.44,-0.08,-0.16,0.88,12
1520724,0.60,-4.10,9.86,-0.11,0.07,0.04,19.94,6.19,-27.44,-0.34,0.23,-0.30,-0.11,-3.56,9.00,0.44,-0.08,-0.17,0.88,12
1520764,-0.09,-3.68,9.25,-0.12,0.29,0.06,19.75,4.75,-27.38,0.71,-0.54,0.86,-0.22,-3.62,8.98,0.43,-0.09,-0.17,0.88,12
1520804,0.10,-3.83,9.28,-0.26,0.41,0.14,21.12,5.12,-27.19,0.12,-0.06,0.27,-0.38,-3.70,8.94,0.43,-0.10,-0.17,0.88,12
1520844,-0.48,-3.91,9.05,-0.19,0.54,0.16,21.94,4.94,-27.88,0.48,-0.13,0.35,-0.57,-3.79,8.90,0.43,-0.11,-0.17,0.88,12
1520884,-0.51,-3.75,8.75,-0.18,0.22,0.06,22.19,4.88,-26.31,0.09,-0.12,0.16,-0.67,-3.85,8.87,0.43,-0.12,-0.17,0.88,12
1520924,-0.78,-3.87,8.83,-0.07,0.07,0.02,21.62,6.25,-25.06,0.16,0.10,-0.12,-0.70,-3.88,8.85,0.43,-0.12,-0.17,0.88,12
1520964,-0.59,-3.91,8.90,-0.05,0.00,0.01,21.88,5.75,-26.06,-0.08,0.00,-0.02,-0.71,-3.89,8.85,0.43,-0.12,-0.17,0.88,12
1521004,-0.67,-3.87,8.83,-0.03,0.09,0.02,21.38,6.25,-26.50,0.12,-0.02,0.05,-0.73,-3.90,8.84,0.43,-0.12,-0.17,0.88,12
1521044,-0.74,-3.91,8.83,-0.03,0.03,0.01,20.88,5.38,-26.19,0.07,0.03,-0.02,-0.75,-3.91,8.84,0.43,-0.12,-0.17,0.88,12
1521085,-0.70,-3.95,8.90,-0.02,0.02,0.01,21.12,5.31,-24.69,0.01,0.00,-0.01,-0.76,-3.91,8.84,0.43,-0.13,-0.17,0.88,12
1521125,-0.70,-3.95,8.83,-0.04,0.06,0.00,21.38,5.69,-26.12,0.05,-0.03,0.07,-0.78,-3.93,8.84,0.43,-0.13,-0.17,0.88,12
1521165,-0.74,-3.91,8.83,-0.02,0.04,0.01,23.06,4.62,-26.19,0.08,-0.02,-0.01,-0.80,-3.93,8.83,0.43,-0.13,-0.17,0.88,12
1521205,-0.78,-3.91,8.83,-0.01,0.00,0.01,22.69,5.19,-26.31,0.05,0.02,0.00,-0.80,-3.94,8.83,0.43,-0.13,-0.17,0.88,12
1521246,-0.74,-3.95,8.87,-0.01,-0.00,0.01,24.12,5.31,-25.44,0.02,0.03,0.00,-0.80,-3.94,8.83,0.43,-0.13,-0.17,0.88,12
1521285,-0.78,-3.95,8.83,-0.01,0.01,0.01,22.88,6.12,-25.62,0.06,-0.01,0.04,-0.75,-3.89,8.81,0.43,-0.13,-0.17,0.88,12
1521325,-0.78,-3.95,8.83,-0.00,-0.01,0.00,21.75,6.62,-27.19,-0.03,-0.05,0.02,-0.75,-3.90,8.81,0.43,-0.13,-0.17,0.88,12
1521365,-0.74,-3.95,8.87,-0.01,-0.01,0.01,23.12,4.62,-25.88,-0.03,-0.05,0.02,-0.75,-3.91,8.81,0.43,-0.13,-0.17,0.88,12
1521407,-0.70,-4.02,8.90,-0.00,-0.00,0.01,21.94,5.44,-25.31,0.01,-0.03,0.05,-0.75,-3.91,8.81,0.43,-0.13,-0.17,0.88,12
1521445,-0.90,-3.95,8.60,0.01,0.04,-0.01,20.88,5.69,-26.56,0.05,-0.11,0.09,-0.75,-3.93,8.83,0.43,-0.13,-0.17,0.88,12
1521485,-0.63,-3.98,8.83,0.02,0.10,0.01,21.88,5.75,-26.06,-0.15,-0.02,-0.23,-0.77,-3.94,8.82,0.43,-0.13,-0.17,0.88,12
1521525,-0.74,-3.98,8.87,0.01,0.08,0.02,21.81,6.06,-26.44,0.14,-0.05,0.01,-0.79,-3.94,8.82,0.43,-0.13,-0.17,0.88,12
1521567,-0.82,-3.95,8.87,0.03,0.07,0.01,22.00,6.00,-25.31,0.05,-0.05,0.05,-0.80,-3.94,8.82,0.43,-0.13,-0.17,0.88,12
1521605,-0.86,-3.91,8.90,0.02,0.08,0.00,21.88,6.62,-26.44,-0.02,-0.01,0.05,-0.84,-3.94,8.83,0.43,-0.13,-0.17,0.88,12
1521645,-0.82,-4.02,8.90,0.00,0.04,0.01,23.25,5.81,-25.88,-0.02,0.03,0.07,-0.86,-3.94,8.83,0.43,-0.13,-0.17,0.88,12
1521685,-0.86,-3.87,8.67,0.01,0.06,0.01,23.62,5.88,-26.19,0.04,-0.09,0.07,-0.88,-3.93,8.84,0.43,-0.13,-0.16,0.88,12
