timestamp,accel_x,accel_y,accel_z,gyro_x,gyro_y,gyro_z,mag_x,mag_y,mag_z,linacc_x,linacc_y,linacc_z,grav_x,grav_y,grav_z,gamerot_w,gamerot_x,gamerot_y,gamerot_z,label
997666,-1.14,-2.36,8.00,0.45,-0.28,-2.24,25.94,9.50,-17.50,0.31,-1.18,-1.60,-1.45,-1.19,9.60,0.97,-0.04,0.09,-0.21,12
997706,-0.41,-1.79,9.19,0.51,-0.09,-2.19,26.12,9.69,-16.75,0.84,-0.77,-0.46,-1.25,-1.02,9.65,0.96,-0.03,0.08,-0.25,12
997746,-2.59,-0.37,10.00,-0.04,0.58,-1.76,25.44,11.12,-16.94,-1.31,0.68,0.36,-1.28,-1.05,9.63,0.95,-0.03,0.08,-0.29,12
997786,-2.90,-0.52,9.65,-0.43,0.08,-1.63,24.38,11.06,-17.44,-1.62,0.69,0.03,-1.28,-1.21,9.62,0.94,-0.04,0.09,-0.32,12
997826,-3.86,-0.98,9.34,0.01,-0.43,-0.68,24.31,12.12,-16.00,-2.71,0.36,-0.28,-1.14,-1.34,9.62,0.93,-0.04,0.08,-0.34,12
997866,-3.13,-0.68,9.65,0.14,-0.23,-0.90,22.81,12.25,-14.81,-2.19,0.65,0.01,-0.94,-1.33,9.64,0.93,-0.05,0.07,-0.36,12
997906,-2.09,-0.48,10.22,0.30,-0.31,-0.42,24.00,12.06,-15.31,-1.23,0.78,0.57,-0.87,-1.27,9.65,0.93,-0.04,0.07,-0.37,12
997946,-1.06,-0.83,9.11,-0.11,-0.68,-0.47,21.56,11.94,-16.38,-0.41,0.39,-0.56,-0.65,-1.22,9.67,0.92,-0.05,0.06,-0.38,12
997986,0.24,-1.21,9.84,0.23,-0.04,-0.46,22.25,13.12,-16.00,0.73,-0.02,0.15,-0.48,-1.19,9.69,0.92,-0.05,0.05,-0.38,12
998026,0.39,-1.44,9.99,0.23,0.22,-0.28,22.62,12.31,-15.88,0.92,-0.32,0.30,-0.52,-1.12,9.70,0.92,-0.04,0.05,-0.39,12
998066,-0.18,-1.37,9.72,0.15,0.29,-0.37,21.50,11.94,-16.69,0.42,-0.32,0.02,-0.60,-1.05,9.70,0.92,-0.04,0.05,-0.40,12
998106,-1.06,-1.29,9.57,-0.02,0.37,-0.03,20.81,12.81,-18.69,-0.33,-0.26,-0.12,-0.73,-1.03,9.70,0.91,-0.03,0.06,-0.40,12
998146,-1.56,-1.29,9.49,0.02,0.15,0.07,22.88,12.38,-16.94,-0.70,-0.24,-0.18,-0.86,-1.05,9.68,0.91,-0.03,0.06,-0.40,12
998186,-1.41,-1.06,9.45,0.01,-0.08,-0.00,22.88,12.06,-16.94,-0.54,-0.02,-0.23,-0.87,-1.04,9.69,0.91,-0.03,0.06,-0.40,12
998226,-0.75,-1.10,9.61,-0.02,0.01,0.01,22.88,12.06,-16.94,0.10,-0.06,-0.08,-0.85,-1.04,9.69,0.91,-0.03,0.06,-0.40,12
998266,-0.37,-1.10,9.76,-0.02,0.05,0.13,23.00,13.56,-17.38,0.50,-0.05,0.07,-0.88,-1.05,9.69,0.91,-0.03,0.06,-0.40,12
998306,-0.33,-1.02,9.80,0.04,0.23,0.15,22.62,12.88,-16.25,0.61,0.04,0.13,-0.95,-1.05,9.67,0.92,-0.03,0.07,-0.40,12
998346,-0.91,-1.14,9.76,0.02,0.09,0.18,23.44,13.56,-16.94,0.09,-0.09,0.09,-1.00,-1.05,9.67,0.92,-0.03,0.07,-0.39,12
998386,-1.02,-0.98,9.76,-0.02,0.10,0.06,23.50,13.25,-16.19,0.02,0.06,0.10,-1.05,-1.05,9.66,0.92,-0.03,0.07,-0.39,12
998426,-1.44,-0.83,9.57,0.01,-0.12,-0.01,23.38,12.94,-16.94,-0.39,0.23,-0.09,-1.05,-1.05,9.66,0.92,-0.03,0.07,-0.39,12
998466,-1.21,-0.98,9.69,0.01,-0.09,0.00,24.38,13.62,-16.81,-0.22,0.07,0.02,-0.99,-1.05,9.67,0.92,-0.03,0.07,-0.39,12
998506,-0.48,-1.06,9.72,-0.00,0.14,-0.00,23.56,12.31,-15.38,0.53,-0.00,0.05,-1.02,-1.05,9.67,0.92,-0.03,0.07,-0.39,12
998546,-1.25,-1.10,9.61,0.02,-0.13,-0.01,23.31,12.94,-17.25,-0.23,-0.05,-0.06,-1.02,-1.05,9.67,0.92,-0.03,0.07,-0.39,12
998586,-0.83,-0.98,9.72,-0.00,0.03,0.03,24.19,13.06,-17.50,0.15,0.05,0.05,-0.98,-1.04,9.67,0.92,-0.03,0.07,-0.39,12
998626,-0.71,-1.02,9.72,-0.01,0.03,0.00,23.94,13.25,-16.50,0.30,0.03,0.05,-1.02,-1.05,9.67,0.92,-0.03,0.07,-0.39,12
998666,-1.14,-1.10,9.61,-0.05,-0.06,0.02,23.50,13.56,-16.56,-0.14,-0.04,-0.06,-0.99,-1.05,9.67,0.92,-0.03,0.07,-0.39,12
998707,-0.83,-1.14,9.65,-0.08,0.02,-0.02,24.38,13.31,-16.50,0.15,-0.05,-0.02,-0.98,-1.09,9.67,0.92,-0.03,0.07,-0.39,12
998747,-0.83,-1.14,9.65,-0.11,-0.07,0.01,22.88,13.25,-17.75,0.15,-0.01,-0.02,-0.98,-1.12,9.66,0.92,-0.03,0.07,-0.39,12
998787,-0.91,-1.63,9.95,0.08,0.07,0.04,23.31,13.88,-17.75,0.09,-0.52,0.29,-0.99,-1.12,9.66,0.92,-0.03,0.07,-0.39,12
998827,-1.14,-0.98,9.46,0.03,0.04,-0.13,22.75,14.06,-16.31,-0.11,0.12,-0.21,-1.02,-1.10,9.66,0.92,-0.03,0.07,-0.39,12
998867,-0.68,-0.95,9.80,0.14,0.00,-0.07,22.94,14.62,-15.56,0.33,0.12,0.13,-1.01,-1.07,9.67,0.92,-0.03,0.07,-0.39,12
998907,-0.41,-1.18,9.69,0.03,0.32,0.04,20.44,13.06,-18.38,0.67,-0.14,0.02,-1.08,-1.03,9.66,0.92,-0.03,0.07,-0.39,12
998947,-0.79,-1.25,9.65,-0.08,0.27,0.11,22.94,14.75,-18.50,0.40,-0.21,0.00,-1.20,-1.04,9.65,0.92,-0.02,0.08,-0.39,12
998987,-0.95,-1.14,9.61,-0.18,0.23,0.11,23.25,12.56,-15.06,0.36,-0.05,-0.02,-1.30,-1.09,9.63,0.92,-0.03,0.08,-0.39,12
999027,-1.71,-1.29,9.80,0.03,0.11,0.24,26.81,13.75,-15.44,-0.33,-0.20,0.18,-1.38,-1.09,9.62,0.92,-0.02,0.09,-0.38,12
999067,-1.02,-0.56,9.69,-0.08,0.20,0.03,25.62,15.44,-16.00,0.39,0.53,0.07,-1.41,-1.09,9.62,0.92,-0.02,0.09,-0.38,12
999107,-1.71,-1.06,9.53,0.03,-0.06,0.02,24.88,14.50,-17.19,-0.27,0.05,-0.08,-1.45,-1.11,9.61,0.92,-0.02,0.09,-0.38,12
999147,-1.37,-1.06,9.57,-0.00,0.03,0.02,25.19,13.31,-14.56,0.07,0.04,-0.04,-1.44,-1.10,9.61,0.92,-0.02,0.09,-0.38,12
999187,-1.33,-1.18,9.65,0.02,0.07,0.02,24.50,13.62,-16.06,0.12,-0.08,0.04,-1.45,-1.09,9.61,0.92,-0.02,0.09,-0.38,12
999227,-1.41,-1.06,9.57,0.01,0.02,0.00,24.31,13.62,-17.19,0.05,0.03,-0.04,-1.46,-1.09,9.61,0.92,-0.02,0.09,-0.38,12
999267,-1.44,-0.98,9.57,0.04,0.02,0.01,23.44,13.56,-16.94,0.02,0.09,-0.04,-1.46,-1.08,9.61,0.92,-0.02,0.09,-0.38,12
999307,-1.37,-1.10,9.69,0.04,0.05,0.01,25.94,13.38,-15.56,0.10,-0.04,0.08,-1.47,-1.06,9.61,0.92,-0.02,0.09,-0.38,12
999347,-1.44,-1.02,9.54,0.01,0.00,-0.00,25.06,13.94,-15.69,0.04,0.04,-0.08,-1.48,-1.05,9.61,0.92,-0.02,0.09,-0.38,12
999387,-1.44,-1.06,9.61,0.01,-0.01,0.00,24.31,13.94,-17.56,0.04,-0.00,0.00,-1.48,-1.05,9.61,0.92,-0.02,0.09,-0.38,12
999427,-1.41,-1.10,9.69,0.00,0.00,0.01,25.50,12.88,-17.75,0.08,-0.05,0.07,-1.48,-1.05,9.62,0.92,-0.02,0.09,-0.38,12
999468,-1.41,-1.02,9.61,0.00,-0.01,0.01,23.75,13.50,-15.06,0.01,0.05,0.00,-1.41,-1.07,9.61,0.92,-0.02,0.09,-0.38,12
999508,-1.41,-1.06,9.65,0.00,0.01,0.01,25.06,13.62,-15.25,0.01,0.00,0.04,-1.41,-1.06,9.61,0.92,-0.02,0.09,-0.38,12
999548,-1.48,-1.10,9.61,0.00,-0.01,0.01,24.50,14.19,-16.50,-0.07,-0.04,0.00,-1.41,-1.06,9.61,0.92,-0.02,0.09,-0.38,12
999588,-1.41,-1.02,9.61,-0.00,-0.00,0.00,25.06,14.25,-16.06,0.01,0.04,0.00,-1.41,-1.06,9.61,0.92,-0.02,0.09,-0.38,12
999628,-1.37,-0.98,9.61,-0.01,0.01,0.00,26.00,13.69,-15.12,0.05,0.08,0.01,-1.41,-1.06,9.60,0.92,-0.02,0.09,-0.38,12
999668,-1.44,-1.10,9.61,-0.00,-0.01,0.00,27.44,14.38,-15.00,-0.02,-0.04,0.00,-1.42,-1.05,9.61,0.92,-0.02,0.09,-0.38,12
999708,-1.41,-1.02,9.61,-0.00,0.00,0.00,25.25,13.38,-16.69,0.02,0.04,-0.01,-1.42,-1.06,9.62,0.92,-0.02,0.09,-0.38,12
999749,-1.41,-1.02,9.61,-0.00,0.00,0.00,25.38,13.69,-16.38,0.02,0.04,-0.01,-1.42,-1.05,9.62,0.92,-0.02,0.09,-0.38,12
999789,-1.41,-1.06,9.61,0.00,0.00,-0.00,26.88,13.44,-15.00,0.02,-0.00,-0.01,-1.42,-1.05,9.62,0.92,-0.02,0.09,-0.38,12
999829,-1.44,-1.02,9.61,-0.00,0.00,0.00,26.06,13.69,-14.81,-0.02,0.04,-0.01,-1.42,-1.06,9.62,0.92,-0.02,0.09,-0.38,12
999869,-1.44,-1.02,9.57,0.00,-0.00,0.00,24.25,13.94,-17.94,-0.02,0.04,-0.05,-1.42,-1.06,9.62,0.92,-0.02,0.09,-0.38,12
999909,-1.41,-1.06,9.65,0.00,0.00,0.00,24.31,14.25,-17.56,0.02,-0.01,0.03,-1.42,-1.05,9.62,0.92,-0.02,0.09,-0.38,12
999949,-1.44,-1.06,9.65,-0.00,-0.01,0.00,25.00,13.94,-16.00,-0.02,-0.01,0.03,-1.42,-1.05,9.62,0.92,-0.02,0.09,-0.38,12
999991,-1.41,-1.02,9.57,0.00,-0.00,0.00,26.75,13.44,-15.81,0.02,0.03,-0.05,-1.42,-1.05,9.62,0.92,-0.02,0.09,-0.38,12
1000029,-1.44,-1.06,9.65,0.00,-0.01,0.00,26.94,14.62,-15.50,-0.03,-0.01,0.03,-1.41,-1.05,9.62,0.92,-0.02,0.09,-0.38,12
1000069,-1.41,-1.06,9.65,-0.01,0.00,0.00,26.62,13.50,-16.56,0.01,-0.01,0.03,-1.41,-1.05,9.62,0.92,-0.02,0.09,-0.38,12
1000109,-1.41,-1.02,9.57,0.00,0.00,0.00,25.50,13.31,-15.19,0.02,0.03,-0.05,-1.42,-1.05,9.62,0.92,-0.02,0.09,-0.38,12
1000151,-1.41,-1.10,9.72,0.00,-0.01,-0.00,25.12,14.50,-15.69,0.01,-0.05,0.11,-1.41,-1.05,9.62,0.92,-0.02,0.09,-0.38,12
1000189,-1.37,-1.06,9.65,-0.01,0.02,0.00,24.38,13.31,-16.44,0.05,-0.01,0.03,-1.42,-1.05,9.62,0.92,-0.02,0.09,-0.38,12
1000229,-1.44,-0.98,9.54,0.01,-0.01,-0.00,24.38,13.31,-16.44,-0.02,0.06,-0.09,-1.42,-1.05,9.62,0.92,-0.02,0.09,-0.38,12
1000269,-1.44,-1.02,9.65,0.01,0.01,0.00,26.38,13.44,-15.06,-0.03,0.03,0.02,-1.41,-1.05,9.62,0.92,-0.02,0.09,-0.38,12
1000312,-1.41,-1.02,9.53,0.00,0.00,0.00,26.50,14.88,-15.56,0.02,0.03,-0.09,-1.42,-1.05,9.62,0.92,-0.02,0.09,-0.38,12
1000349,-1.44,-0.95,9.57,0.01,0.01,0.00,26.81,13.44,-15.44,-0.02,0.11,-0.05,-1.42,-1.05,9.62,0.92,-0.02,0.09,-0.38,12
1000389,-1.44,-1.10,9.65,0.00,-0.01,-0.00,26.81,13.44,-15.44,-0.03,-0.06,0.03,-1.41,-1.04,9.62,0.92,-0.02,0.09,-0.38,12
1000429,-1.41,-1.10,9.72,0.00,0.02,0.01,26.69,13.50,-16.12,0.02,-0.05,0.10,-1.43,-1.05,9.62,0.92,-0.02,0.09,-0.38,12
1000472,-1.44,-0.98,9.54,0.00,-0.01,-0.00,25.81,12.81,-15.88,-0.02,0.06,-0.09,-1.42,-1.05,9.62,0.92,-0.02,0.09,-0.38,12
1000509,-1.37,-1.02,9.72,0.00,0.01,0.00,27.81,14.12,-15.38,0.05,0.03,0.11,-1.42,-1.05,9.61,0.92,-0.02,0.09,-0.38,12
1000549,-1.41,-1.10,9.65,0.00,0.01,0.00,23.88,13.88,-17.25,0.02,-0.06,0.04,-1.43,-1.04,9.61,0.92,-0.02,0.09,-0.38,12
1000589,-1.48,-1.02,9.50,0.00,-0.01,-0.00,26.06,13.69,-14.81,-0.06,0.02,-0.11,-1.42,-1.04,9.61,0.92,-0.02,0.09,-0.38,12
1000632,-1.41,-1.10,9.65,0.00,0.01,-0.00,26.06,13.69,-14.81,0.02,-0.06,0.04,-1.42,-1.04,9.61,0.92,-0.02,0.09,-0.38,12
1000669,-1.48,-1.10,9.57,0.00,-0.01,-0.00,26.38,13.44,-15.06,-0.06,-0.06,-0.04,-1.42,-1.04,9.61,0.92,-0.02,0.09,-0.38,12
1000709,-1.41,-0.98,9.57,-0.00,-0.00,-0.00,25.75,13.12,-16.25,0.02,0.06,-0.04,-1.42,-1.05,9.61,0.92,-0.02,0.09,-0.38,12
1000750,-1.41,-1.06,9.69,0.00,0.01,-0.00,25.50,13.69,-15.62,0.02,-0.01,0.08,-1.43,-1.05,9.61,0.92,-0.02,0.09,-0.38,12
1000790,-1.44,-1.10,9.61,0.00,-0.02,-0.00,25.38,13.38,-15.94,-0.02,-0.05,0.00,-1.42,-1.05,9.61,0.92,-0.02,0.09,-0.38,12
1000830,-1.37,-0.98,9.65,-0.00,0.01,-0.00,26.88,14.06,-15.44,0.05,0.05,0.04,-1.42,-1.04,9.61,0.92,-0.02,0.09,-0.38,12
1000870,-1.44,-1.10,9.65,0.00,-0.01,0.00,25.62,13.75,-17.44,-0.02,-0.05,0.04,-1.42,-1.05,9.61,0.92,-0.02,0.09,-0.38,12
1000910,-1.44,-1.10,9.61,0.00,-0.02,0.00,25.44,13.38,-15.62,-0.02,-0.05,0.00,-1.42,-1.05,9.61,0.92,-0.02,0.09,-0.38,12
1000950,-1.41,-0.98,9.57,0.00,-0.00,0.00,24.19,13.81,-15.38,0.01,0.06,-0.04,-1.41,-1.05,9.61,0.92,-0.02,0.09,-0.38,12
1000990,-1.41,-1.06,9.65,0.00,-0.01,0.00,24.81,12.75,-16.31,0.01,-0.01,0.04,-1.41,-1.05,9.61,0.92,-0.02,0.09,-0.38,12
1001030,-1.41,-1.10,9.61,-0.00,-0.00,0.00,26.25,14.06,-16.25,0.00,-0.06,0.00,-1.41,-1.04,9.61,0.92,-0.02,0.09,-0.38,12
1001070,-1.41,-0.98,9.53,0.00,-0.01,-0.00,25.56,13.31,-14.81,0.00,0.05,-0.08,-1.41,-1.04,9.61,0.92,-0.02,0.09,-0.38,12
1001110,-1.41,-0.98,9.65,0.00,-0.01,0.00,26.19,13.44,-16.19,-0.01,0.05,0.05,-1.40,-1.04,9.60,0.92,-0.02,0.09,-0.38,12
1001150,-1.44,-1.10,9.53,0.00,0.01,0.01,25.50,14.56,-16.38,-0.04,-0.06,-0.08,-1.41,-1.04,9.61,0.92,-0.02,0.09,-0.38,12
1001190,-1.44,-0.98,9.54,0.01,-0.03,-0.01,24.69,13.38,-17.50,-0.04,0.05,-0.08,-1.41,-1.03,9.61,0.92,-0.02,0.09,-0.38,12
1001230,-1.29,-0.98,9.76,-0.01,0.04,0.00,26.06,14.00,-15.12,0.12,0.05,0.15,-1.41,-1.04,9.61,0.92,-0.02,0.09,-0.38,12
1001270,-1.41,-1.10,9.61,0.00,-0.01,-0.00,25.56,13.62,-15.19,0.00,-0.06,-0.01,-1.41,-1.04,9.62,0.92,-0.02,0.09,-0.38,12
1001310,-1.29,-0.95,9.72,-0.00,-0.03,-0.01,26.44,14.88,-15.88,0.11,0.09,0.11,-1.40,-1.04,9.62,0.92,-0.02,0.09,-0.38,12
1001350,-1.33,-1.06,9.69,-0.00,0.06,0.01,24.44,14.81,-17.25,0.08,-0.02,0.07,-1.41,-1.04,9.62,0.92,-0.02,0.09,-0.38,12
1001390,-1.56,-1.14,9.50,0.01,-0.07,-0.02,25.50,14.25,-16.00,-0.15,-0.09,-0.12,-1.41,-1.05,9.62,0.92,-0.02,0.09,-0.38,12
1001431,-1.37,-0.95,9.65,-0.00,0.03,0.00,26.00,13.38,-15.12,0.02,0.09,0.02,-1.39,-1.04,9.62,0.92,-0.02,0.09,-0.38,12
1001470,-1.48,-1.10,9.57,-0.00,0.00,0.00,26.69,13.19,-15.75,-0.08,-0.06,-0.05,-1.40,-1.04,9.62,0.92,-0.02,0.09,-0.38,12
1001510,-1.48,-1.06,9.57,0.00,-0.04,-0.01,24.75,13.69,-17.12,-0.09,-0.03,-0.05,-1.39,-1.03,9.62,0.92,-0.02,0.09,-0.38,12
1001550,-1.25,-0.98,9.72,-0.01,0.03,0.01,26.31,14.38,-16.25,0.14,0.05,0.10,-1.39,-1.04,9.62,0.92,-0.02,0.09,-0.38,12
1001591,-1.41,-1.06,9.65,0.01,-0.02,0.00,26.69,13.81,-16.19,-0.02,-0.02,0.02,-1.39,-1.04,9.63,0.92,-0.02,0.09,-0.38,12
1001630,-1.33,-0.98,9.65,-0.00,0.00,0.00,25.50,14.25,-16.00,0.05,0.05,0.02,-1.38,-1.04,9.63,0.92,-0.02,0.09,-0.38,12
1001671,-1.37,-1.02,9.65,-0.00,0.01,-0.00,26.19,14.06,-16.62,0.03,0.01,0.02,-1.40,-1.03,9.63,0.92,-0.02,0.09,-0.38,12
1001710,-1.44,-1.06,9.61,0.00,-0.02,0.00,25.94,14.31,-16.25,-0.04,-0.03,-0.02,-1.40,-1.03,9.63,0.92,-0.02,0.09,-0.38,12
1001751,-1.41,-1.02,9.61,0.00,0.01,0.00,25.88,14.56,-16.69,-0.01,0.01,-0.02,-1.40,-1.03,9.63,0.92,-0.02,0.09,-0.38,12
1001791,-1.41,-1.06,9.61,0.00,-0.00,0.00,24.62,14.19,-15.75,-0.01,-0.03,-0.02,-1.40,-1.03,9.63,0.92,-0.02,0.09,-0.38,12
1001831,-1.41,-1.06,9.61,0.00,-0.01,0.00,26.00,14.88,-16.38,-0.01,-0.03,-0.02,-1.40,-1.03,9.62,0.92,-0.02,0.09,-0.38,12
1001871,-1.37,-1.02,9.65,-0.00,0.00,0.00,25.38,13.38,-15.94,0.02,0.02,0.02,-1.39,-1.04,9.62,0.92,-0.02,0.09,-0.38,12
1001911,-1.41,-1.02,9.61,0.00,0.00,-0.00,25.06,13.31,-15.25,-0.02,0.02,-0.02,-1.39,-1.04,9.62,0.92,-0.02,0.09,-0.38,12
1001951,-1.41,-1.06,9.61,0.00,-0.00,-0.00,26.12,13.44,-16.62,-0.02,-0.02,-0.02,-1.39,-1.04,9.62,0.92,-0.02,0.09,-0.38,12
1001992,-1.37,-1.02,9.65,-0.00,0.01,0.00,25.50,13.81,-18.56,0.02,0.02,0.02,-1.39,-1.04,9.62,0.92,-0.02,0.09,-0.38,12
1004415,-1.40,-1.07,9.62,-0.00,0.00,0.00,26.44,12.94,-17.31,-0.02,-0.01,0.02,-1.38,-1.05,9.59,0.92,-0.02,0.09,-0.38,12
1004455,-1.40,-1.07,9.58,-0.00,0.00,0.00,26.50,14.31,-15.12,-0.01,-0.01,-0.02,-1.39,-1.05,9.60,0.92,-0.02,0.09,-0.38,12
1004495,-1.40,-1.07,9.58,0.00,-0.01,0.00,25.69,14.50,-14.88,-0.01,-0.01,-0.02,-1.39,-1.05,9.60,0.92,-0.02,0.09,-0.38,12
1004535,-1.37,-1.03,9.62,0.00,0.01,0.01,26.19,12.81,-15.81,0.03,0.02,0.02,-1.40,-1.05,9.59,0.92,-0.02,0.09,-0.38,12
1004575,-1.40,-1.07,9.58,0.00,-0.01,-0.00,25.12,13.62,-14.94,-0.01,-0.02,-0.02,-1.39,-1.05,9.59,0.92,-0.02,0.09,-0.38,12
1004615,-1.37,-1.03,9.58,-0.00,-0.00,-0.00,25.00,13.94,-16.00,0.02,0.02,-0.02,-1.39,-1.05,9.59,0.92,-0.02,0.09,-0.38,12
1004655,-1.40,-1.07,9.58,0.00,0.00,-0.00,24.69,13.88,-15.00,-0.00,-0.01,-0.02,-1.40,-1.05,9.59,0.92,-0.02,0.09,-0.38,12
1004695,-1.40,-1.07,9.58,0.00,-0.01,-0.00,25.06,14.25,-16.06,-0.01,-0.01,-0.02,-1.39,-1.05,9.59,0.92,-0.02,0.09,-0.38,12
1004735,-1.37,-1.03,9.62,-0.00,0.00,0.00,26.44,14.00,-15.12,0.02,0.02,0.02,-1.39,-1.05,9.59,0.92,-0.02,0.09,-0.38,12
1004775,-1.40,-1.07,9.58,0.00,-0.00,0.00,25.12,13.62,-14.94,-0.01,-0.01,-0.02,-1.39,-1.05,9.59,0.92,-0.02,0.09,-0.38,12
1004815,-1.40,-1.07,9.58,-0.00,0.00,0.00,25.69,13.94,-14.50,-0.01,-0.01,-0.02,-1.39,-1.05,9.59,0.92,-0.02,0.09,-0.38,12
1004855,-1.37,-1.03,9.62,0.00,0.00,0.00,26.44,13.38,-14.75,0.02,0.02,0.02,-1.39,-1.05,9.59,0.92,-0.02,0.09,-0.38,12
1004895,-1.37,-1.03,9.62,0.00,0.00,0.00,25.50,13.69,-15.62,0.03,0.02,0.02,-1.40,-1.05,9.59,0.92,-0.02,0.09,-0.38,12
1004935,-1.37,-1.07,9.58,0.00,-0.00,0.00,25.00,13.94,-16.00,0.02,-0.01,-0.02,-1.39,-1.05,9.59,0.92,-0.02,0.09,-0.38,12
1004975,-1.37,-1.03,9.62,-0.00,0.01,-0.00,25.56,13.94,-15.19,0.02,0.02,0.03,-1.39,-1.05,9.59,0.92,-0.02,0.09,-0.38,12
1005015,-1.40,-1.03,9.58,-0.00,-0.00,-0.00,24.94,13.31,-16.00,-0.02,0.02,-0.01,-1.38,-1.05,9.59,0.92,-0.02,0.09,-0.38,12
1005055,-1.40,-1.07,9.58,0.00,0.00,0.00,25.31,14.19,-14.19,-0.02,-0.02,-0.01,-1.38,-1.05,9.59,0.92,-0.02,0.09,-0.38,12
1005095,-1.37,-1.07,9.58,0.00,-0.00,0.00,24.56,13.25,-15.31,0.02,-0.01,-0.02,-1.38,-1.05,9.59,0.92,-0.02,0.09,-0.38,12
1005135,-1.40,-1.03,9.58,-0.00,-0.00,0.00,24.75,12.75,-16.75,-0.02,0.02,-0.01,-1.38,-1.05,9.59,0.92,-0.02,0.09,-0.38,12
1005175,-1.37,-1.03,9.58,-0.00,0.00,0.00,25.56,13.00,-14.81,0.02,0.02,-0.01,-1.38,-1.05,9.59,0.92,-0.02,0.09,-0.38,12
1005215,-1.40,-1.07,9.58,0.00,-0.00,0.00,24.88,13.00,-16.00,-0.02,-0.01,0.00,-1.38,-1.05,9.58,0.92,-0.02,0.09,-0.38,12
1005255,-1.40,-1.07,9.58,0.00,-0.00,-0.00,26.56,14.31,-14.75,-0.02,-0.01,0.00,-1.38,-1.05,9.58,0.92,-0.02,0.09,-0.38,12
1005296,-1.40,-1.03,9.58,0.00,-0.00,0.00,25.00,13.00,-15.25,-0.02,0.02,0.00,-1.38,-1.05,9.58,0.92,-0.02,0.09,-0.38,12
1005336,-1.40,-1.03,9.58,0.00,-0.00,-0.00,24.62,13.56,-15.31,-0.01,0.02,-0.01,-1.39,-1.05,9.59,0.92,-0.02,0.09,-0.38,12
1005376,-1.40,-1.07,9.58,0.00,-0.00,0.00,24.50,13.88,-16.06,-0.01,-0.01,-0.01,-1.39,-1.05,9.59,0.92,-0.02,0.09,-0.38,12
1005416,-1.40,-1.07,9.58,0.00,-0.01,0.00,26.88,14.06,-15.44,-0.01,-0.01,-0.01,-1.39,-1.05,9.59,0.92,-0.02,0.09,-0.38,12
1005457,-1.37,-1.03,9.58,0.00,-0.01,0.00,25.12,14.50,-15.69,0.02,0.02,-0.01,-1.39,-1.05,9.59,0.92,-0.02,0.09,-0.38,12
1005497,-1.37,-1.07,9.58,0.00,0.01,0.01,25.44,14.56,-16.38,0.02,-0.01,-0.01,-1.39,-1.05,9.59,0.92,-0.02,0.09,-0.38,12
1005537,-1.40,-1.03,9.62,0.00,0.00,0.00,27.31,12.88,-14.62,-0.01,0.02,0.03,-1.39,-1.05,9.59,0.92,-0.02,0.09,-0.38,12
1005577,-1.37,-1.07,9.58,-0.00,0.01,-0.00,25.56,14.50,-15.62,0.02,-0.01,-0.01,-1.39,-1.05,9.59,0.92,-0.02,0.09,-0.38,12
1005617,-1.40,-1.07,9.58,-0.00,-0.00,-0.00,26.31,13.44,-15.50,-0.01,-0.01,-0.01,-1.39,-1.05,9.59,0.92,-0.02,0.09,-0.38,12
1005657,-1.37,-1.07,9.62,0.00,0.01,0.00,25.56,13.94,-15.19,0.02,-0.01,0.02,-1.39,-1.05,9.59,0.92,-0.02,0.09,-0.38,12
1005697,-1.37,-1.03,9.58,-0.00,-0.00,-0.00,26.31,13.44,-15.50,0.02,0.03,-0.02,-1.39,-1.06,9.59,0.92,-0.02,0.09,-0.38,12
1005737,-1.37,-1.07,9.58,-0.00,0.00,-0.00,26.00,13.06,-14.75,0.02,-0.01,-0.02,-1.38,-1.05,9.59,0.92,-0.02,0.09,-0.38,12
1005777,-1.37,-1.07,9.58,0.00,0.00,0.00,27.56,14.38,-14.31,0.02,-0.01,-0.02,-1.38,-1.05,9.59,0.92,-0.02,0.09,-0.38,12
1005817,-1.40,-1.07,9.58,0.00,0.00,0.00,25.56,13.62,-15.19,-0.02,-0.01,-0.01,-1.38,-1.05,9.59,0.92,-0.02,0.09,-0.38,12
1005857,-1.37,-1.07,9.58,0.00,-0.00,0.00,25.56,13.62,-15.19,0.02,-0.01,-0.01,-1.38,-1.05,9.59,0.92,-0.02,0.09,-0.38,12
1005899,-1.40,-1.07,9.58,0.00,0.01,0.01,24.56,12.94,-15.31,-0.03,-0.01,-0.01,-1.38,-1.05,9.59,0.92,-0.02,0.09,-0.38,12
1005937,-1.37,-1.07,9.62,0.00,0.00,0.00,27.06,14.31,-14.38,0.02,-0.00,0.03,-1.39,-1.06,9.59,0.92,-0.02,0.09,-0.38,12
1005977,-1.37,-1.03,9.62,-0.00,0.01,0.00,25.38,14.00,-16.38,0.02,0.03,0.03,-1.39,-1.06,9.59,0.92,-0.02,0.09,-0.38,12
1006017,-1.40,-1.07,9.58,-0.00,-0.00,0.00,26.94,13.75,-14.69,-0.02,-0.01,-0.02,-1.38,-1.05,9.59,0.92,-0.02,0.09,-0.38,12
1006059,-1.40,-1.03,9.58,0.00,0.00,-0.00,27.50,14.06,-14.31,-0.02,0.03,-0.02,-1.38,-1.06,9.59,0.92,-0.02,0.09,-0.38,12
1006097,-1.40,-1.03,9.58,-0.00,0.00,0.00,25.06,13.00,-14.88,-0.01,0.02,-0.02,-1.39,-1.05,9.59,0.92,-0.02,0.09,-0.38,12
1006137,-1.40,-1.07,9.58,-0.00,0.00,0.00,25.44,13.38,-15.62,-0.01,-0.01,-0.01,-1.39,-1.05,9.59,0.92,-0.02,0.09,-0.38,12
1006177,-1.37,-1.07,9.58,0.00,0.00,0.00,25.56,13.62,-15.19,0.02,-0.01,-0.02,-1.39,-1.05,9.59,0.92,-0.02,0.09,-0.38,12
1006219,-1.44,-1.07,9.58,0.00,-0.00,0.00,25.56,13.62,-15.19,-0.05,-0.01,-0.01,-1.39,-1.05,9.59,0.92,-0.02,0.09,-0.38,12
1006257,-1.37,-1.07,9.62,0.00,-0.00,0.00,25.94,13.69,-15.56,0.03,-0.01,0.02,-1.40,-1.05,9.59,0.92,-0.02,0.09,-0.38,12
1006297,-1.37,-1.07,9.62,0.00,0.00,-0.00,24.00,13.56,-16.12,0.03,-0.01,0.02,-1.40,-1.05,9.59,0.92,-0.02,0.09,-0.38,12
1006337,-1.40,-1.03,9.58,0.00,-0.00,-0.00,23.75,13.50,-15.06,-0.00,0.03,-0.02,-1.40,-1.06,9.59,0.92,-0.02,0.09,-0.38,12
1006380,-1.37,-1.07,9.58,0.00,0.00,-0.00,25.94,13.69,-15.56,0.02,-0.00,-0.01,-1.39,-1.06,9.59,0.92,-0.02,0.09,-0.38,12
1006417,-1.40,-1.07,9.58,0.00,0.00,0.00,24.50,13.00,-15.69,-0.00,-0.01,-0.02,-1.40,-1.05,9.59,0.92,-0.02,0.09,-0.38,12
1006458,-1.40,-1.07,9.58,-0.01,-0.00,-0.00,26.31,13.12,-15.50,-0.00,-0.00,-0.01,-1.40,-1.06,9.59,0.92,-0.02,0.09,-0.38,12
1006498,-1.40,-1.07,9.62,-0.00,0.01,-0.00,24.94,13.62,-16.00,-0.01,-0.00,0.03,-1.39,-1.06,9.59,0.92,-0.02,0.09,-0.38,12
1006541,-1.40,-1.07,9.58,0.00,-0.01,0.00,27.06,14.31,-14.38,-0.01,-0.00,-0.01,-1.39,-1.06,9.59,0.92,-0.02,0.09,-0.38,12
1006578,-1.37,-1.03,9.58,0.00,0.00,0.00,25.81,12.25,-15.50,0.03,0.03,-0.01,-1.40,-1.06,9.59,0.92,-0.02,0.09,-0.38,12
1006618,-1.40,-1.07,9.58,0.00,-0.00,0.00,25.75,13.94,-14.12,-0.00,-0.00,-0.01,-1.40,-1.06,9.59,0.92,-0.02,0.09,-0.38,12
1006658,-1.40,-1.03,9.62,0.00,-0.00,0.00,25.50,13.31,-15.19,-0.01,0.03,0.03,-1.39,-1.06,9.59,0.92,-0.02,0.09,-0.38,12
1006701,-1.37,-1.03,9.58,0.00,-0.00,0.00,25.88,14.75,-14.12,0.02,0.02,-0.02,-1.39,-1.05,9.59,0.92,-0.02,0.09,-0.38,12
1006738,-1.40,-1.03,9.58,-0.00,0.00,0.00,24.75,14.44,-15.00,-0.01,0.02,-0.02,-1.39,-1.05,9.59,0.92,-0.02,0.09,-0.38,12
1006778,-1.40,-1.03,9.58,-0.00,-0.00,-0.00,24.69,14.44,-15.38,-0.01,0.02,-0.02,-1.39,-1.05,9.59,0.92,-0.02,0.09,-0.38,12
1006818,-1.37,-1.07,9.58,0.00,0.00,0.00,26.38,13.75,-15.50,0.02,-0.01,-0.02,-1.38,-1.05,9.59,0.92,-0.02,0.09,-0.38,12
1006858,-1.40,-1.07,9.58,0.00,-0.00,0.00,27.75,14.12,-15.69,-0.02,-0.01,-0.02,-1.38,-1.05,9.59,0.92,-0.02,0.09,-0.38,12
1006898,-1.37,-1.03,9.58,0.00,-0.00,0.00,26.00,12.75,-14.75,0.02,0.02,-0.01,-1.38,-1.05,9.59,0.92,-0.02,0.09,-0.38,12
1006938,-1.37,-1.07,9.62,0.00,0.00,0.00,25.62,13.94,-14.88,0.02,-0.01,0.03,-1.38,-1.05,9.59,0.92,-0.02,0.09,-0.38,12
1006978,-1.40,-1.07,9.58,0.00,-0.00,-0.00,24.12,13.56,-15.38,-0.02,-0.01,-0.01,-1.38,-1.05,9.59,0.92,-0.02,0.09,-0.38,12
1007018,-1.40,-1.07,9.58,0.00,0.00,0.00,22.75,13.12,-15.50,-0.02,-0.02,-0.01,-1.38,-1.05,9.59,0.92,-0.02,0.09,-0.38,12
1007058,-1.37,-1.03,9.58,0.00,0.00,0.00,25.81,14.19,-14.12,0.02,0.02,-0.01,-1.38,-1.05,9.59,0.92,-0.02,0.09,-0.38,12
1007098,-1.40,-1.07,9.58,0.00,-0.00,-0.00,25.69,13.62,-14.50,-0.02,-0.01,-0.01,-1.38,-1.05,9.59,0.92,-0.02,0.09,-0.38,12
1007138,-1.37,-1.03,9.58,0.00,-0.00,-0.00,26.50,14.00,-14.75,0.02,0.02,-0.01,-1.38,-1.05,9.59,0.92,-0.02,0.09,-0.38,12
1007178,-1.37,-1.03,9.62,-0.00,0.00,0.00,24.25,13.50,-14.69,0.02,0.02,0.03,-1.38,-1.05,9.59,0.92,-0.02,0.09,-0.38,12
1007218,-1.40,-1.07,9.58,0.00,-0.00,0.00,25.19,13.56,-14.56,-0.02,-0.01,-0.02,-1.38,-1.05,9.59,0.92,-0.02,0.09,-0.38,12
1007258,-1.37,-1.07,9.58,0.00,0.01,0.00,25.62,13.94,-14.88,0.02,-0.01,-0.01,-1.38,-1.05,9.59,0.92,-0.02,0.09,-0.38,12
1007298,-1.37,-1.07,9.62,0.00,0.00,-0.00,25.81,13.62,-13.75,0.02,-0.01,0.03,-1.39,-1.05,9.59,0.92,-0.02,0.09,-0.38,12
1007338,-1.40,-1.07,9.58,-0.00,0.00,0.00,26.06,14.00,-15.12,-0.02,-0.01,-0.01,-1.38,-1.05,9.59,0.92,-0.02,0.09,-0.38,12
1007378,-1.40,-1.07,9.54,0.00,-0.00,0.00,25.75,14.81,-14.88,-0.01,-0.00,-0.05,-1.39,-1.06,9.59,0.92,-0.02,0.09,-0.38,12
1007420,-1.37,-1.07,9.62,-0.00,0.00,0.00,24.69,13.56,-14.94,0.02,-0.00,0.03,-1.39,-1.06,9.59,0.92,-0.02,0.09,-0.38,12
1007458,-1.37,-1.03,9.62,0.00,0.00,0.00,25.19,14.19,-15.25,0.02,0.03,0.03,-1.39,-1.06,9.59,0.92,-0.02,0.09,-0.38,12
1007499,-1.40,-1.07,9.54,0.00,-0.01,-0.00,25.50,13.31,-15.19,-0.01,-0.00,-0.05,-1.39,-1.06,9.59,0.92,-0.02,0.09,-0.38,12
1007539,-1.33,-1.03,9.62,-0.00,0.00,-0.00,26.25,15.12,-14.88,0.05,0.03,0.03,-1.38,-1.06,9.59,0.92,-0.02,0.09,-0.38,12
1007579,-1.40,-1.07,9.58,0.00,0.01,-0.00,25.75,14.81,-14.88,-0.01,-0.00,-0.01,-1.39,-1.06,9.59,0.92,-0.02,0.09,-0.38,12
1007619,-1.40,-1.07,9.58,0.00,-0.01,0.00,26.06,13.69,-14.81,-0.02,-0.01,-0.01,-1.38,-1.05,9.59,0.92,-0.02,0.09,-0.38,12
1007660,-1.37,-1.03,9.62,0.00,0.01,-0.00,26.62,14.00,-14.00,0.02,0.03,0.03,-1.38,-1.06,9.59,0.92,-0.02,0.09,-0.38,12
1007699,-1.40,-1.07,9.58,0.00,-0.00,-0.01,27.00,14.06,-14.69,-0.01,-0.01,-0.01,-1.39,-1.05,9.59,0.92,-0.02,0.09,-0.38,12
1007739,-1.40,-1.03,9.58,0.00,0.01,-0.00,25.12,13.31,-14.88,-0.01,0.02,-0.01,-1.39,-1.05,9.59,0.92,-0.02,0.09,-0.38,12
1007779,-1.37,-1.03,9.58,0.00,0.01,0.00,26.12,14.25,-14.81,0.02,0.02,-0.01,-1.39,-1.05,9.59,0.92,-0.02,0.09,-0.38,12
1007820,-1.40,-1.07,9.58,0.00,-0.01,0.00,25.31,14.44,-14.56,-0.01,-0.01,-0.01,-1.39,-1.05,9.59,0.92,-0.02,0.09,-0.38,12
1007860,-1.40,-1.07,9.58,-0.00,0.01,0.00,26.56,14.00,-14.38,-0.01,-0.01,-0.01,-1.39,-1.05,9.59,0.92,-0.02,0.09,-0.38,12
1007900,-1.40,-1.07,9.58,0.00,-0.01,-0.00,26.00,13.69,-15.12,-0.01,-0.01,-0.01,-1.39,-1.05,9.59,0.92,-0.02,0.09,-0.38,12
1007940,-1.40,-1.03,9.62,-0.00,0.00,0.00,25.25,14.19,-14.56,-0.01,0.02,0.03,-1.39,-1.05,9.59,0.92,-0.02,0.09,-0.38,12
1007980,-1.40,-1.07,9.62,-0.01,-0.05,0.03,26.00,13.06,-14.75,-0.01,-0.01,0.03,-1.39,-1.05,9.59,0.92,-0.02,0.09,-0.38,12
1008020,-1.52,-0.99,9.62,0.00,0.00,-0.00,26.81,12.56,-14.62,-0.12,0.06,0.03,-1.40,-1.05,9.59,0.92,-0.02,0.09,-0.38,12
1008060,-1.33,-1.07,9.58,-0.01,-0.02,-0.00,24.94,14.12,-13.88,0.05,-0.01,-0.02,-1.38,-1.05,9.59,0.92,-0.02,0.09,-0.38,12
1008100,-1.29,-1.03,9.62,0.02,0.03,-0.01,24.12,13.12,-12.44,0.11,0.02,0.03,-1.40,-1.05,9.59,0.92,-0.02,0.09,-0.38,12
1008140,-1.44,-1.07,9.58,-0.02,0.02,-0.01,25.00,13.50,-13.06,-0.04,-0.02,-0.01,-1.40,-1.05,9.59,0.92,-0.02,0.09,-0.38,12
1008180,-1.33,-1.03,9.62,-0.03,0.15,-0.03,24.19,13.69,-12.44,0.10,0.02,0.03,-1.43,-1.05,9.59,0.92,-0.02,0.09,-0.38,12
1008220,-1.56,-1.07,9.50,-0.02,0.04,-0.02,26.19,13.50,-11.50,-0.12,-0.00,-0.09,-1.44,-1.06,9.59,0.92,-0.02,0.09,-0.38,12
1008260,-1.29,-1.07,9.77,-0.03,0.38,-0.14,27.25,13.56,-9.88,0.23,0.02,0.20,-1.52,-1.09,9.57,0.92,-0.02,0.09,-0.38,12
1008300,-1.33,-1.14,9.66,-0.02,0.29,-0.16,31.25,15.25,-8.75,0.29,-0.04,0.09,-1.62,-1.10,9.56,0.92,-0.02,0.10,-0.38,12
1008340,-2.52,-2.98,14.44,1.42,1.69,0.40,34.88,16.19,-9.06,-0.45,-2.09,4.95,-2.06,-0.89,9.49,0.92,-0.00,0.12,-0.38,12
1008380,-2.21,-1.84,11.65,2.58,0.83,0.54,36.19,16.00,-8.88,0.35,-1.87,2.23,-2.55,0.03,9.42,0.92,0.05,0.12,-0.37,12
1008420,-1.94,0.27,7.81,2.24,1.37,0.82,38.44,13.00,-9.19,1.04,-0.63,-1.45,-2.98,0.91,9.27,0.92,0.10,0.13,-0.37,12
1008460,-3.05,0.58,8.77,1.93,1.07,0.73,40.50,10.25,-8.06,0.36,-1.20,-0.21,-3.41,1.77,8.98,0.91,0.15,0.13,-0.35,12
1008500,-3.55,2.57,6.51,0.97,0.66,0.73,42.62,7.44,-6.94,0.05,0.18,-2.26,-3.60,2.39,8.77,0.91,0.18,0.13,-0.34,12
1008541,-3.86,2.65,7.74,0.39,0.71,0.86,43.38,6.31,-6.75,-0.11,-0.07,-0.87,-3.75,2.72,8.61,0.91,0.20,0.14,-0.33,12
1008581,-4.20,2.61,8.43,0.35,0.31,0.95,44.25,4.38,-8.06,-0.38,-0.41,-0.05,-3.82,3.02,8.48,0.92,0.22,0.14,-0.31,12
1008621,-3.28,3.53,7.01,-1.15,0.46,0.43,43.38,2.19,-6.19,0.59,0.52,-1.44,-3.87,3.01,8.45,0.92,0.22,0.15,-0.29,12
1008661,-4.32,2.80,8.70,-2.40,0.20,0.26,44.62,3.69,-5.38,-0.39,0.38,0.08,-3.93,2.42,8.62,0.93,0.18,0.16,-0.28,12
1008701,-4.66,1.12,10.27,-1.49,0.15,0.68,46.25,5.88,-4.94,-0.68,-0.63,1.52,-3.98,1.75,8.74,0.94,0.15,0.18,-0.26,12
1008741,-3.93,1.42,8.85,-1.37,0.23,0.49,47.00,7.69,-4.62,0.06,0.05,0.05,-3.99,1.37,8.80,0.94,0.12,0.18,-0.25,12
1008781,-4.05,1.27,8.78,-1.39,0.60,0.55,48.00,8.31,-4.50,0.07,0.30,-0.03,-4.12,0.97,8.80,0.95,0.10,0.20,-0.23,12
1008821,-4.09,1.12,8.05,-0.93,-0.05,0.13,48.88,9.81,-3.00,0.11,0.52,-0.75,-4.20,0.60,8.80,0.95,0.08,0.21,-0.22,12
1008861,-3.78,0.77,8.82,-0.65,0.15,0.02,48.56,12.06,-1.31,0.42,0.42,0.01,-4.20,0.35,8.80,0.95,0.07,0.21,-0.22,12
1008901,-3.20,1.34,8.05,-0.47,-0.00,-0.44,48.38,11.44,-1.69,1.03,1.22,-0.74,-4.23,0.12,8.79,0.95,0.06,0.22,-0.22,12
1008941,-3.13,1.54,7.25,-0.73,-0.26,-0.91,50.38,12.69,-1.12,1.06,1.73,-1.56,-4.19,-0.20,8.80,0.95,0.04,0.22,-0.23,12
1008981,-4.28,-1.03,9.12,0.98,-0.38,-0.62,48.75,14.62,-2.19,-0.19,-0.67,0.28,-4.09,-0.36,8.84,0.95,0.04,0.21,-0.24,12
1009021,-4.81,-1.34,9.08,1.63,-1.48,-0.63,48.06,13.12,-2.19,-1.11,-1.44,0.08,-3.70,0.10,9.00,0.94,0.06,0.19,-0.26,12
1009061,-6.12,-1.11,9.62,-0.17,-0.41,0.74,43.44,11.81,-5.25,-2.90,-1.38,0.44,-3.22,0.27,9.18,0.95,0.06,0.16,-0.27,12
1009101,-4.32,-0.84,11.84,-0.44,-0.82,0.17,40.62,11.31,-5.94,-1.30,-1.12,2.60,-3.02,0.28,9.24,0.95,0.06,0.15,-0.26,12
1009141,-2.13,0.58,10.15,-1.26,0.20,0.10,41.81,11.75,-6.88,0.73,0.68,0.86,-2.87,-0.10,9.30,0.96,0.03,0.15,-0.26,12
1009181,-2.71,-0.80,10.73,0.06,0.15,-0.07,42.00,12.81,-6.56,0.26,-0.53,1.46,-2.97,-0.27,9.27,0.96,0.03,0.15,-0.25,12
1009221,-3.09,-0.04,8.70,-0.52,0.33,-0.04,40.50,12.44,-7.44,-0.06,0.32,-0.55,-3.03,-0.35,9.24,0.95,0.02,0.16,-0.25,12
1009261,-3.05,-0.23,9.31,-0.21,0.38,-0.06,42.94,13.50,-6.81,0.13,0.28,0.13,-3.18,-0.51,9.18,0.95,0.02,0.17,-0.25,12
1009301,-2.97,-0.34,9.16,-0.27,0.42,-0.12,43.94,12.62,-5.25,0.34,0.25,0.02,-3.31,-0.59,9.13,0.95,0.01,0.17,-0.25,12
1009341,-2.78,-0.42,9.77,-0.85,1.09,-0.20,46.62,14.88,-4.25,0.81,0.40,0.76,-3.59,-0.82,9.01,0.95,0.01,0.19,-0.25,12
1009381,-3.09,-0.91,9.46,-0.56,1.00,-0.12,46.75,14.81,-3.50,0.86,0.20,0.64,-3.95,-1.11,8.82,0.94,-0.00,0.22,-0.26,12
1009421,-3.55,-0.88,9.20,-1.57,2.72,0.25,46.75,14.81,-3.50,1.04,0.57,0.74,-4.59,-1.45,8.45,0.93,-0.01,0.26,-0.25,12
1009461,-4.28,-2.41,9.35,-1.20,3.50,-0.01,52.38,17.12,1.81,1.38,-0.46,1.67,-5.66,-1.95,7.68,0.91,-0.03,0.32,-0.24,12
1009501,-7.34,-2.52,5.90,-0.17,2.04,0.35,56.75,17.56,6.38,-0.81,-0.49,-1.03,-6.53,-2.03,6.93,0.90,-0.02,0.38,-0.23,12
1009541,-7.92,-1.68,4.33,-0.46,1.24,0.28,61.00,19.50,9.31,-0.97,0.34,-2.19,-6.95,-2.02,6.52,0.89,-0.02,0.41,-0.22,12
1009582,-7.88,-1.57,4.21,0.13,0.23,-0.05,61.00,19.50,9.31,-0.71,0.49,-2.05,-7.16,-2.05,6.27,0.88,-0.01,0.42,-0.22,12
1009622,-7.80,-1.68,5.02,-0.52,-0.42,0.12,61.88,18.88,12.31,-0.70,0.40,-1.31,-7.10,-2.08,6.33,0.88,-0.02,0.42,-0.22,12
1009662,-6.08,-2.29,7.35,-0.13,0.02,-0.05,62.75,18.62,12.44,0.99,-0.15,1.02,-7.07,-2.14,6.34,0.88,-0.02,0.42,-0.21,12
1009702,-6.77,-2.10,6.82,-0.29,0.37,0.09,62.31,17.38,13.19,0.31,0.06,0.51,-7.08,-2.16,6.31,0.88,-0.03,0.42,-0.21,12
1009742,-5.54,-1.61,7.74,-0.97,1.56,0.31,62.88,18.00,13.56,1.86,0.74,1.86,-7.40,-2.34,5.88,0.87,-0.04,0.45,-0.20,12
1009784,-7.65,-2.45,5.32,0.51,0.53,0.12,63.19,18.25,15.44,-0.02,-0.14,-0.25,-7.62,-2.31,5.58,0.86,-0.03,0.46,-0.20,12
1009822,-8.68,-1.76,3.41,0.21,0.15,0.05,61.38,16.25,16.81,-0.98,0.45,-2.11,-7.70,-2.20,5.52,0.86,-0.02,0.47,-0.20,12
1009862,-9.03,-1.64,3.22,0.15,-1.03,-0.14,62.38,16.94,16.88,-1.44,0.51,-2.48,-7.59,-2.16,5.70,0.87,-0.02,0.46,-0.20,12
1009902,-7.96,-1.53,4.21,-0.11,-0.49,-0.03,59.44,16.75,15.44,-0.55,0.65,-1.71,-7.40,-2.18,5.92,0.87,-0.03,0.44,-0.20,12
1009943,-6.42,-2.41,7.51,-0.21,0.23,-0.05,58.94,16.12,15.38,0.96,-0.18,1.59,-7.38,-2.23,5.92,0.87,-0.03,0.44,-0.20,12
1009982,-7.23,-2.64,6.55,0.04,0.25,0.02,58.88,16.12,15.00,0.19,-0.41,0.67,-7.41,-2.23,5.88,0.87,-0.03,0.44,-0.20,12
1010022,-7.34,-2.10,5.94,-0.01,0.43,0.03,60.94,16.88,15.94,0.18,0.13,0.20,-7.52,-2.23,5.74,0.87,-0.03,0.45,-0.20,12
1010062,-7.50,-2.22,5.67,0.34,0.40,-0.03,60.88,16.88,15.62,0.11,-0.02,0.03,-7.61,-2.20,5.64,0.86,-0.02,0.46,-0.20,12
1010105,-7.88,-2.87,6.63,0.04,1.71,0.04,60.31,16.88,15.12,-0.08,-0.71,1.24,-7.80,-2.16,5.39,0.86,-0.02,0.47,-0.21,12
1010142,-7.96,-3.52,5.40,0.59,2.89,-0.02,62.62,16.88,18.31,0.29,-1.43,0.68,-8.24,-2.09,4.72,0.83,-0.00,0.51,-0.21,12
1010182,-9.53,-3.37,1.84,1.09,4.12,1.38,64.44,15.75,21.94,-0.58,-1.70,-1.59,-8.95,-1.67,3.43,0.80,0.04,0.57,-0.20,12
1010222,-11.05,-1.68,-2.57,-0.12,1.82,0.44,64.75,13.88,25.00,-1.78,-0.53,-5.21,-9.28,-1.15,2.64,0.77,0.08,0.60,-0.20,12
1010265,-10.49,-0.88,-0.65,-1.45,0.84,0.30,64.00,12.00,27.50,-1.02,0.30,-2.50,-9.47,-1.17,1.85,0.75,0.07,0.63,-0.18,12
1010302,-8.22,-1.07,2.76,-0.95,-0.51,0.42,65.56,10.56,29.94,1.26,-0.03,0.91,-9.48,-1.04,1.84,0.76,0.06,0.63,-0.16,12
1010342,-4.12,1.27,4.06,-2.68,1.86,-1.18,64.19,10.75,29.44,5.38,2.44,2.40,-9.50,-1.17,1.66,0.75,0.03,0.64,-0.13,12
1010382,-6.99,-0.91,4.79,-2.20,1.84,-0.66,63.69,10.00,32.69,2.53,0.92,4.29,-9.52,-1.84,0.50,0.72,-0.02,0.69,-0.12,12
1010425,-12.62,-4.29,3.18,-0.19,-1.90,-0.04,62.31,9.12,35.44,-3.13,-2.39,2.69,-9.50,-1.90,0.49,0.72,-0.04,0.69,-0.10,12
1010462,-7.15,-2.95,3.11,0.42,-0.54,-0.37,61.25,10.06,33.88,2.30,-1.07,1.95,-9.45,-1.88,1.16,0.74,-0.04,0.66,-0.11,12
1010502,-7.95,-1.53,0.65,-0.11,-0.66,-0.67,59.06,9.19,29.19,1.42,0.61,-0.71,-9.38,-2.14,1.36,0.75,-0.04,0.65,-0.12,12
1010542,-8.91,-1.76,0.88,-0.46,0.88,-0.35,53.44,9.38,27.44,0.44,0.54,-0.34,-9.35,-2.30,1.23,0.74,-0.05,0.66,-0.12,12
1010586,-10.09,-2.48,0.69,0.11,-0.17,0.15,57.31,9.62,29.38,-0.74,-0.16,-0.40,-9.36,-2.33,1.09,0.74,-0.06,0.66,-0.12,12
1010623,-8.80,-2.25,0.61,0.03,-0.01,-0.26,55.50,8.56,29.56,0.55,0.10,-0.50,-9.35,-2.35,1.12,0.74,-0.06,0.66,-0.12,12
1010663,-10.10,-2.48,0.08,-0.03,-0.38,0.06,55.94,9.25,29.25,-0.77,-0.09,-1.12,-9.33,-2.40,1.20,0.74,-0.06,0.66,-0.12,12
1010705,-9.61,-2.48,0.77,-0.02,-0.25,0.04,56.06,9.81,29.56,-0.28,-0.12,-0.56,-9.32,-2.37,1.33,0.74,-0.06,0.66,-0.12,12
1010747,-8.88,-2.18,1.69,-0.08,-0.07,0.06,54.06,8.50,29.00,0.44,0.18,0.30,-9.31,-2.36,1.39,0.75,-0.06,0.65,-0.12,12
1010784,-8.80,-2.33,1.84,-0.01,0.10,-0.06,55.25,8.62,28.06,0.52,0.04,0.49,-9.31,-2.37,1.35,0.74,-0.06,0.65,-0.12,12
1010824,-9.30,-2.29,1.23,-0.02,0.06,-0.08,57.00,9.56,29.69,0.02,0.09,-0.11,-9.31,-2.38,1.34,0.74,-0.06,0.65,-0.12,12
1010865,-9.49,-2.25,0.77,-0.01,-0.10,0.01,56.31,8.94,28.88,-0.18,0.15,-0.58,-9.30,-2.41,1.34,0.74,-0.06,0.65,-0.12,12
1010904,-9.49,-2.48,1.23,-0.04,0.05,0.04,55.12,9.12,29.81,-0.18,-0.11,-0.10,-9.31,-2.38,1.33,0.74,-0.06,0.65,-0.12,12
1010944,-9.14,-2.22,1.27,-0.01,0.04,-0.05,54.69,9.38,29.75,0.17,0.16,-0.05,-9.31,-2.38,1.31,0.74,-0.06,0.66,-0.12,12
1010984,-9.52,-2.37,0.96,-0.00,-0.02,0.03,55.00,9.12,29.12,-0.21,0.02,-0.36,-9.31,-2.39,1.31,0.74,-0.06,0.66,-0.12,12
1011024,-9.26,-2.33,1.04,-0.03,-0.03,-0.01,54.62,8.50,30.19,0.05,0.06,-0.28,-9.31,-2.39,1.31,0.74,-0.06,0.66,-0.12,12
1011064,-9.18,-2.22,1.19,-0.03,0.03,-0.01,54.88,8.88,28.38,0.12,0.17,-0.12,-9.30,-2.39,1.31,0.74,-0.06,0.66,-0.12,12
1011104,-9.18,-2.45,1.34,0.01,0.07,-0.00,54.69,8.75,30.19,0.12,-0.06,0.05,-9.30,-2.39,1.30,0.74,-0.06,0.66,-0.12,12
1011144,-9.22,-2.29,1.11,0.00,0.02,-0.01,55.75,8.62,28.50,0.09,0.11,-0.16,-9.30,-2.40,1.27,0.74,-0.06,0.66,-0.12,12
1011184,-9.37,-2.25,1.00,-0.02,-0.00,-0.03,54.00,8.19,28.62,-0.07,0.14,-0.28,-9.30,-2.40,1.27,0.74,-0.06,0.66,-0.12,12
1011224,-9.26,-2.29,1.04,0.00,-0.01,-0.01,55.50,9.19,29.19,0.05,0.11,-0.24,-9.30,-2.41,1.27,0.74,-0.06,0.66,-0.12,12
1011264,-9.22,-2.37,1.15,-0.03,0.02,0.03,54.81,8.56,28.38,0.09,0.04,-0.12,-9.30,-2.41,1.27,0.74,-0.06,0.66,-0.12,12
1011304,-9.26,-2.33,1.15,-0.01,-0.05,0.01,55.88,8.62,29.25,-0.02,-0.03,0.00,-9.24,-2.30,1.15,0.74,-0.06,0.66,-0.12,12
1011344,-9.30,-2.41,1.30,-0.03,0.05,-0.03,56.00,8.31,30.00,-0.05,-0.10,0.14,-9.24,-2.31,1.16,0.74,-0.06,0.66,-0.12,12
1011384,-9.11,-2.25,1.00,-0.04,0.03,0.03,55.50,8.56,29.56,0.14,0.06,-0.14,-9.24,-2.31,1.13,0.74,-0.06,0.66,-0.12,12
1011424,-9.26,-2.29,1.04,-0.04,-0.04,-0.00,54.75,8.75,30.50,-0.01,0.03,-0.09,-9.25,-2.32,1.12,0.74,-0.06,0.66,-0.12,12
1011464,-9.26,-2.33,1.15,-0.02,-0.01,-0.01,54.25,9.94,29.00,-0.02,-0.01,0.02,-9.24,-2.32,1.13,0.74,-0.06,0.66,-0.12,12
1011504,-9.18,-2.29,1.04,0.01,-0.07,0.00,54.88,8.25,29.12,0.06,0.04,-0.10,-9.24,-2.34,1.13,0.74,-0.06,0.66,-0.12,12
1011544,-9.41,-2.41,1.07,0.02,-0.11,0.01,54.62,9.38,29.38,-0.16,-0.09,-0.09,-9.25,-2.32,1.16,0.74,-0.06,0.66,-0.12,12
1011584,-9.33,-2.37,1.19,0.03,-0.15,0.05,55.56,8.88,29.88,-0.08,-0.06,-0.03,-9.25,-2.31,1.22,0.74,-0.06,0.65,-0.12,12
1011625,-9.10,-2.25,1.30,0.00,-0.07,0.00,54.44,8.19,29.06,0.14,0.05,0.06,-9.25,-2.30,1.24,0.75,-0.06,0.65,-0.12,12
1011665,-9.30,-2.33,1.38,0.03,-0.08,0.02,55.50,8.56,29.56,-0.05,-0.04,0.11,-9.25,-2.30,1.27,0.75,-0.06,0.65,-0.12,12
1013421,-9.33,-2.22,1.27,-0.01,-0.03,0.00,52.56,11.62,25.75,0.25,0.00,0.14,-9.30,-2.23,1.09,0.71,0.05,0.67,-0.23,12
1013461,-9.26,-2.25,1.50,-0.01,0.00,-0.00,54.38,11.81,26.00,-0.04,0.01,0.18,-9.30,-2.23,1.09,0.71,0.05,0.67,-0.23,12
1013501,-9.26,-2.22,1.34,0.00,0.04,-0.01,53.06,12.00,25.81,0.05,-0.03,0.40,-9.30,-2.23,1.09,0.71,0.05,0.67,-0.23,12
1013541,-9.41,-2.22,1.38,-0.01,-0.00,0.02,53.94,11.75,25.94,0.04,0.02,0.26,-9.30,-2.23,1.09,0.71,0.05,0.67,-0.23,12
1013582,-9.14,-2.22,1.38,0.00,0.00,0.00,53.81,11.75,25.19,-0.11,0.01,0.29,-9.23,-2.23,1.40,0.71,0.05,0.67,-0.23,12
1013622,-9.25,-2.33,1.35,0.00,0.00,-0.01,53.94,12.06,25.50,0.09,0.01,-0.02,-9.23,-2.23,1.41,0.71,0.05,0.66,-0.23,12
1013662,-9.21,-2.25,1.38,-0.01,-0.03,-0.00,53.62,12.62,25.81,-0.03,-0.09,-0.06,-9.23,-2.24,1.40,0.71,0.05,0.66,-0.23,12
1013702,-9.18,-2.29,1.38,0.01,0.03,-0.00,55.81,12.50,26.12,0.01,-0.01,-0.02,-9.23,-2.24,1.39,0.72,0.05,0.66,-0.23,12
1013742,-9.33,-2.25,1.27,0.00,-0.01,0.00,53.88,11.25,25.56,0.05,-0.05,-0.01,-9.23,-2.25,1.38,0.72,0.05,0.66,-0.23,12
1013782,-9.21,-2.21,1.38,0.01,-0.01,0.00,53.06,11.69,26.19,-0.11,-0.00,-0.11,-9.23,-2.25,1.38,0.72,0.05,0.66,-0.23,12
1013823,-9.33,-2.29,1.27,0.01,0.00,-0.01,51.44,11.38,24.88,0.02,0.04,0.01,-9.23,-2.25,1.38,0.72,0.05,0.66,-0.23,12
1013862,-9.21,-2.29,1.35,-0.00,-0.00,0.01,54.44,12.06,26.31,-0.10,-0.04,-0.11,-9.23,-2.26,1.37,0.72,0.05,0.66,-0.23,12
1013902,-9.18,-2.29,1.35,-0.00,0.01,-0.00,52.94,11.44,25.44,0.02,-0.03,-0.02,-9.23,-2.26,1.36,0.72,0.05,0.66,-0.23,12
1013942,-9.29,-2.25,1.31,-0.01,0.01,0.01,52.81,11.19,25.06,0.05,-0.03,-0.01,-9.23,-2.27,1.35,0.72,0.05,0.66,-0.23,12
1013983,-9.18,-2.25,1.31,0.00,0.00,0.00,54.81,11.56,26.06,-0.06,0.01,-0.04,-9.23,-2.27,1.35,0.72,0.05,0.66,-0.23,12
1014022,-9.33,-2.29,1.31,-0.01,-0.01,-0.01,54.06,12.38,25.88,0.05,0.01,-0.04,-9.24,-2.27,1.34,0.72,0.05,0.66,-0.23,12
1014062,-9.25,-2.29,1.35,0.00,-0.04,0.00,54.06,12.38,25.88,-0.09,-0.02,-0.04,-9.24,-2.27,1.35,0.72,0.05,0.66,-0.23,12
1014102,-9.21,-2.21,1.46,0.01,0.02,-0.00,53.50,11.75,25.88,-0.01,-0.02,-0.00,-9.24,-2.27,1.35,0.72,0.05,0.66,-0.23,12
1014144,-9.29,-2.29,1.27,0.03,-0.04,-0.01,53.94,12.69,25.12,0.03,0.05,0.11,-9.23,-2.27,1.38,0.72,0.05,0.66,-0.23,12
1014182,-9.18,-2.48,1.35,0.00,-0.04,-0.01,54.38,10.94,26.75,-0.06,-0.02,-0.11,-9.24,-2.27,1.38,0.72,0.05,0.65,-0.23,12
1014222,-9.14,-2.33,1.57,0.00,-0.02,-0.00,53.38,12.06,24.75,0.06,-0.21,-0.04,-9.24,-2.28,1.38,0.72,0.05,0.65,-0.23,12
1014262,-9.33,-2.14,1.27,-0.01,-0.07,0.02,51.94,11.94,24.56,0.10,-0.05,0.19,-9.23,-2.29,1.40,0.72,0.05,0.65,-0.23,12
1014304,-9.29,-2.33,1.42,-0.00,-0.04,-0.01,54.88,12.44,26.00,-0.10,0.15,-0.13,-9.23,-2.28,1.40,0.72,0.05,0.65,-0.23,12
1014342,-9.14,-2.29,1.54,-0.02,-0.02,0.00,52.00,11.62,25.38,-0.06,-0.05,0.02,-9.23,-2.28,1.39,0.72,0.05,0.65,-0.23,12
1014382,-9.18,-2.37,1.54,0.00,0.03,-0.01,52.44,11.44,25.44,0.09,-0.01,0.15,-9.23,-2.28,1.38,0.72,0.05,0.65,-0.23,12
1014422,-9.29,-2.25,1.27,0.00,-0.01,-0.01,53.12,12.31,25.81,0.05,-0.09,0.16,-9.23,-2.29,1.41,0.72,0.05,0.65,-0.23,12
1014464,-9.14,-2.29,1.54,-0.01,-0.04,0.02,53.50,11.75,25.88,-0.06,0.04,-0.14,-9.23,-2.29,1.40,0.72,0.05,0.65,-0.23,12
1014502,-9.21,-2.37,1.50,0.00,0.01,-0.01,53.00,12.00,25.44,0.09,0.00,0.14,-9.23,-2.28,1.41,0.72,0.05,0.65,-0.23,12
1014542,-9.29,-2.25,1.31,0.01,-0.03,-0.00,53.50,12.94,25.06,0.02,-0.09,0.09,-9.23,-2.29,1.42,0.72,0.05,0.65,-0.23,12
1014583,-9.33,-2.29,1.35,0.01,-0.06,0.02,54.69,12.19,24.94,-0.07,0.04,-0.11,-9.23,-2.28,1.44,0.72,0.05,0.65,-0.23,12
1014625,-9.21,-2.29,1.57,-0.00,-0.03,-0.01,53.62,12.62,25.81,-0.10,-0.01,-0.09,-9.23,-2.28,1.44,0.72,0.05,0.65,-0.23,12
1014663,-9.21,-2.25,1.46,0.00,-0.02,-0.00,53.44,12.69,24.75,0.02,-0.01,0.14,-9.23,-2.28,1.45,0.72,0.05,0.65,-0.23,12
1014703,-9.21,-2.29,1.46,0.00,-0.01,-0.00,52.75,12.38,23.56,0.02,0.03,0.01,-9.23,-2.28,1.46,0.72,0.05,0.65,-0.23,12
1014743,-9.25,-2.29,1.42,-0.00,-0.01,0.00,53.31,11.50,25.12,0.01,-0.01,0.00,-9.23,-2.28,1.46,0.72,0.05,0.65,-0.23,12
1014783,-9.21,-2.33,1.54,0.02,0.00,0.00,54.00,12.69,25.56,-0.03,-0.01,-0.04,-9.23,-2.29,1.47,0.72,0.05,0.65,-0.23,12
1014823,-9.25,-2.33,1.46,-0.01,-0.01,-0.00,54.38,13.00,25.19,0.01,-0.04,0.07,-9.23,-2.29,1.47,0.72,0.05,0.65,-0.23,12
1014863,-9.21,-2.29,1.50,0.01,-0.01,-0.01,54.19,12.12,24.88,-0.03,-0.04,-0.01,-9.23,-2.29,1.48,0.72,0.05,0.65,-0.23,12
1014903,-9.21,-2.29,1.42,-0.00,0.00,0.00,53.75,12.44,24.00,0.01,0.00,0.02,-9.23,-2.29,1.48,0.72,0.05,0.65,-0.23,12
1014943,-9.21,-2.29,1.46,0.00,-0.00,-0.01,52.38,11.69,24.62,0.01,0.00,-0.05,-9.22,-2.29,1.47,0.72,0.05,0.65,-0.23,12
1014983,-9.21,-2.29,1.46,-0.00,0.00,-0.00,54.75,12.44,25.25,0.00,0.00,-0.01,-9.22,-2.29,1.48,0.72,0.05,0.65,-0.23,12
1015023,-9.21,-2.33,1.46,0.01,-0.01,-0.01,53.69,11.81,24.06,0.00,0.00,-0.02,-9.22,-2.30,1.47,0.72,0.05,0.65,-0.23,12
1015063,-9.33,-2.29,1.38,-0.01,-0.04,0.01,54.12,12.12,24.44,0.00,-0.03,-0.01,-9.22,-2.30,1.48,0.72,0.05,0.65,-0.23,12
1015104,-9.18,-2.29,1.54,0.00,-0.02,0.00,53.38,13.00,24.31,-0.11,0.01,-0.10,-9.23,-2.30,1.48,0.72,0.05,0.65,-0.23,12
1015143,-9.21,-2.25,1.50,0.01,-0.01,0.00,51.94,12.88,23.75,0.05,0.02,0.05,-9.23,-2.30,1.49,0.72,0.04,0.65,-0.23,12
1015183,-9.21,-2.29,1.50,-0.00,0.02,0.01,55.12,11.88,25.00,0.01,0.04,0.01,-9.23,-2.30,1.49,0.72,0.04,0.65,-0.23,12
1015224,-9.21,-2.29,1.42,-0.00,0.00,0.00,52.25,11.19,24.25,0.01,0.01,0.01,-9.22,-2.29,1.49,0.72,0.05,0.65,-0.23,12
1015264,-9.25,-2.33,1.46,-0.00,-0.02,0.01,53.00,11.69,25.81,0.00,0.00,-0.07,-9.22,-2.29,1.49,0.72,0.04,0.65,-0.23,12
1015304,-9.21,-2.33,1.54,0.00,0.00,-0.00,53.88,11.75,25.50,-0.04,-0.04,-0.03,-9.23,-2.30,1.49,0.72,0.04,0.65,-0.23,12
1015359,-9.21,-2.29,1.50,0.00,-0.01,-0.00,53.75,12.12,24.38,0.01,-0.03,0.04,-9.23,-2.30,1.50,0.72,0.04,0.65,-0.23,12
1015397,-9.18,-2.33,1.54,0.00,-0.03,-0.00,52.75,11.75,23.94,0.00,0.02,-0.01,-9.22,-2.30,1.51,0.72,0.04,0.65,-0.23,12
1015434,-9.21,-2.29,1.54,0.01,-0.01,-0.00,52.94,12.31,24.69,0.04,-0.02,0.03,-9.22,-2.30,1.51,0.72,0.04,0.65,-0.23,12
1015475,-9.29,-2.29,1.46,0.00,-0.00,0.00,54.06,12.12,24.06,-0.07,0.02,-0.05,-9.22,-2.31,1.52,0.72,0.04,0.65,-0.23,12
1015515,-9.18,-2.29,1.50,0.00,-0.01,0.01,53.81,12.69,24.38,0.05,0.02,-0.02,-9.23,-2.30,1.52,0.72,0.04,0.65,-0.23,12
1015557,-9.25,-2.29,1.50,0.01,-0.01,0.00,54.56,11.62,24.50,-0.03,-0.02,0.02,-9.23,-2.30,1.52,0.72,0.04,0.65,-0.23,12
1015595,-9.21,-2.29,1.50,0.00,-0.02,-0.00,52.44,11.69,25.00,-0.04,0.02,-0.02,-9.22,-2.30,1.52,0.72,0.04,0.65,-0.23,12
1015635,-9.18,-2.29,1.54,-0.02,-0.01,0.00,52.75,11.50,24.31,0.04,0.02,0.01,-9.22,-2.30,1.53,0.72,0.04,0.65,-0.23,12
1015675,-9.25,-2.29,1.54,0.01,-0.02,0.00,54.06,12.12,24.06,-0.03,0.01,0.01,-9.23,-2.30,1.53,0.72,0.04,0.65,-0.23,12
1015715,-9.21,-2.29,1.54,-0.00,-0.01,0.00,54.12,12.12,24.44,0.01,0.01,0.01,-9.23,-2.30,1.53,0.72,0.04,0.65,-0.23,12
1015755,-9.21,-2.29,1.54,-0.00,0.00,0.00,53.88,12.69,24.75,0.01,-0.03,0.01,-9.23,-2.30,1.53,0.72,0.04,0.65,-0.23,12
1015795,-9.21,-2.29,1.54,0.00,-0.01,-0.00,53.75,13.06,23.69,0.01,0.01,0.01,-9.23,-2.30,1.53,0.72,0.04,0.65,-0.23,12
1015835,-9.21,-2.29,1.54,0.00,-0.01,0.00,55.50,11.44,25.06,0.01,0.01,0.00,-9.23,-2.30,1.54,0.72,0.04,0.65,-0.23,12
1015875,-9.21,-2.29,1.57,-0.00,0.00,0.00,53.94,12.38,25.12,0.01,0.01,0.04,-9.23,-2.30,1.54,0.72,0.04,0.65,-0.23,12
1015916,-9.21,-2.29,1.50,0.00,-0.03,0.01,52.69,12.25,26.06,-0.07,0.04,-0.09,-9.23,-2.29,1.55,0.72,0.04,0.65,-0.23,12
1015956,-9.18,-2.33,1.65,-0.01,-0.03,0.00,53.88,13.00,24.38,0.04,-0.04,0.09,-9.22,-2.29,1.56,0.73,0.04,0.65,-0.23,12
1015996,-9.18,-2.29,1.57,-0.00,-0.01,-0.01,52.62,11.50,23.62,0.04,0.00,0.01,-9.22,-2.29,1.56,0.73,0.04,0.65,-0.23,12
1016036,-9.21,-2.29,1.57,-0.00,0.00,0.00,53.31,12.06,24.31,0.00,0.00,0.00,-9.22,-2.29,1.57,0.73,0.04,0.65,-0.23,12
1016076,-9.21,-2.29,1.57,-0.00,-0.00,-0.00,53.81,12.44,24.38,-0.00,-0.01,-0.03,-9.21,-2.28,1.57,0.73,0.04,0.65,-0.23,12
1016116,-9.18,-2.29,1.57,0.00,-0.00,0.00,52.81,12.94,23.56,0.03,0.00,0.00,-9.21,-2.29,1.57,0.73,0.04,0.65,-0.23,12
1016156,-9.21,-2.29,1.57,0.00,0.00,0.00,54.19,12.12,24.88,-0.00,0.00,0.00,-9.21,-2.29,1.57,0.73,0.04,0.65,-0.23,12
1016196,-9.21,-2.29,1.54,-0.00,-0.01,-0.01,53.19,13.00,23.19,-0.00,0.00,-0.04,-9.21,-2.29,1.58,0.73,0.04,0.65,-0.23,12
1016236,-9.21,-2.29,1.61,0.00,-0.01,-0.00,54.06,11.31,24.50,-0.00,0.00,0.00,-9.21,-2.29,1.57,0.73,0.04,0.65,-0.23,12
1016276,-9.21,-2.29,1.57,0.00,0.00,-0.00,54.06,12.12,24.06,-0.00,0.00,0.00,-9.21,-2.29,1.57,0.73,0.04,0.65,-0.23,12
1016316,-9.21,-2.29,1.57,0.00,0.00,-0.00,53.19,12.38,23.62,-0.00,0.00,-0.00,-9.21,-2.29,1.58,0.73,0.04,0.65,-0.23,12
1016357,-9.21,-2.29,1.57,0.00,-0.00,0.01,53.12,11.81,23.62,-0.00,-0.01,-0.00,-9.21,-2.28,1.58,0.73,0.04,0.65,-0.23,12
1016396,-9.21,-2.29,1.57,0.00,-0.00,-0.00,53.75,12.75,24.00,0.03,0.00,-0.01,-9.21,-2.29,1.59,0.73,0.04,0.65,-0.23,12
1016436,-9.18,-2.29,1.57,0.01,0.01,-0.00,54.44,11.38,23.81,0.03,0.00,-0.00,-9.21,-2.29,1.58,0.73,0.04,0.65,-0.23,12
1016476,-9.25,-2.29,1.54,0.00,0.01,-0.01,53.31,12.69,23.94,-0.04,0.00,-0.04,-9.21,-2.29,1.58,0.73,0.04,0.65,-0.23,12
1016517,-9.21,-2.29,1.50,0.00,-0.01,-0.01,54.44,12.81,23.00,-0.00,0.00,-0.07,-9.21,-2.29,1.57,0.73,0.04,0.65,-0.23,12
1016556,-9.18,-2.29,1.57,0.00,-0.00,0.00,54.06,11.56,24.44,-0.00,-0.04,0.04,-9.21,-2.29,1.57,0.73,0.04,0.65,-0.23,12
1016596,-9.25,-2.29,1.54,0.00,0.01,0.00,53.69,12.75,23.69,-0.04,0.01,-0.03,-9.21,-2.30,1.57,0.73,0.04,0.65,-0.23,12
1016636,-9.21,-2.29,1.54,0.00,-0.01,-0.00,53.50,11.31,23.31,-0.00,0.01,-0.02,-9.21,-2.30,1.56,0.73,0.04,0.65,-0.23,12
1016677,-9.21,-2.33,1.57,0.00,-0.00,-0.00,52.62,11.75,23.19,-0.00,-0.03,0.00,-9.21,-2.30,1.57,0.73,0.04,0.65,-0.23,12
1016716,-9.14,-2.33,1.65,-0.01,-0.00,-0.00,52.00,11.75,22.38,-0.00,0.02,0.00,-9.21,-2.30,1.57,0.73,0.04,0.65,-0.23,12
1016756,-9.21,-2.33,1.61,0.02,0.02,-0.01,54.19,12.56,21.50,-0.00,-0.02,0.05,-9.21,-2.30,1.56,0.73,0.04,0.65,-0.23,12
1016796,-9.21,-2.25,1.42,-0.02,0.00,-0.02,52.44,11.56,22.44,-0.01,0.06,-0.15,-9.20,-2.31,1.57,0.73,0.04,0.65,-0.23,12
1016836,-9.29,-2.33,1.57,0.02,-0.05,-0.01,52.44,11.56,22.44,-0.09,-0.01,-0.01,-9.20,-2.32,1.59,0.73,0.04,0.65,-0.23,12
1016876,-9.71,-2.37,1.16,0.05,0.04,-0.02,52.31,12.75,20.94,0.09,0.05,-0.07,-9.19,-2.34,1.65,0.73,0.04,0.64,-0.24,12
1016916,-9.68,-2.60,1.46,0.06,-0.52,-0.07,52.88,13.75,18.00,-0.53,-0.25,-0.38,-9.15,-2.35,1.84,0.73,0.04,0.64,-0.24,12
1016957,-10.33,-2.94,1.46,0.28,-1.13,0.19,53.75,13.62,15.56,-1.26,-0.67,-0.82,-9.07,-2.27,2.28,0.74,0.04,0.63,-0.24,12
1017000,-10.90,-2.64,1.19,0.38,-1.97,0.30,54.62,15.12,11.25,-1.77,-1.27,-1.25,-8.90,-2.09,3.02,0.76,0.04,0.60,-0.24,12
1017037,-8.98,-2.21,2.73,0.77,-3.28,0.54,53.69,14.06,6.50,-2.42,-0.88,-3.03,-8.48,-1.76,4.22,0.79,0.05,0.56,-0.25,12
1017077,-6.69,-0.38,4.26,1.50,-3.59,0.32,52.94,13.31,2.75,1.19,0.98,-1.13,-7.88,-1.36,5.39,0.83,0.05,0.49,-0.25,12
1017117,-6.07,0.39,4.60,-0.41,-1.44,0.64,51.56,13.00,0.12,1.43,1.65,-1.32,-7.50,-1.26,5.92,0.85,0.06,0.45,-0.25,12
1017157,-6.07,0.09,4.30,-1.13,-2.15,0.15,50.94,13.94,-1.50,0.93,1.59,-2.16,-7.00,-1.50,6.45,0.88,0.04,0.42,-0.24,12
1017197,-5.16,-2.64,8.43,-1.28,-1.59,-0.25,50.75,15.06,-0.88,1.13,1.05,-0.94,-6.59,-1.88,6.77,0.89,0.00,0.39,-0.23,12
1017237,-6.42,-3.09,8.43,-0.65,-1.17,-0.57,49.31,14.19,-3.88,-0.20,-0.91,1.41,-6.22,-2.18,7.02,0.90,-0.02,0.37,-0.23,12
1017277,-5.50,-2.90,8.43,-0.27,-0.84,0.23,49.00,15.31,-3.56,0.50,-0.67,1.25,-6.00,-2.23,7.19,0.90,-0.04,0.36,-0.23,12
1017318,-4.54,-1.68,7.24,-0.45,-0.01,0.11,48.62,15.88,-3.69,1.46,0.65,0.09,-6.00,-2.33,7.16,0.91,-0.04,0.35,-0.23,12
1017357,-7.07,-2.37,6.48,-0.40,0.02,0.08,47.88,16.06,-2.69,0.28,0.16,0.09,-6.01,-2.41,7.12,0.91,-0.05,0.35,-0.22,12
1017397,-6.34,-2.06,5.98,-1.17,-0.38,0.83,46.62,15.94,-2.50,-0.38,0.52,-1.11,-5.97,-2.59,7.09,0.91,-0.06,0.35,-0.21,12
1017437,-7.72,-4.59,8.01,-0.53,-0.73,1.10,48.94,15.62,-4.38,-1.94,-1.93,0.80,-5.78,-2.66,7.21,0.91,-0.08,0.35,-0.19,12
1017477,-5.77,-3.48,7.36,-0.73,-1.51,0.15,43.81,15.56,-5.75,-0.43,-0.62,-0.12,-5.34,-2.85,7.48,0.93,-0.10,0.33,-0.17,12
1017517,-3.78,-2.67,7.63,-0.38,-1.23,-0.38,44.50,15.81,-4.19,0.31,0.01,0.63,-4.93,-3.03,7.69,0.93,-0.11,0.30,-0.16,12
1017558,-2.82,-2.33,7.79,-0.32,-0.76,-0.38,46.25,16.94,-5.50,1.83,0.92,0.01,-4.65,-3.25,7.77,0.94,-0.12,0.28,-0.16,12
1017598,-3.20,-3.44,9.01,-0.38,0.03,-0.54,41.75,16.88,-5.31,1.37,0.05,1.30,-4.57,-3.49,7.71,0.94,-0.14,0.28,-0.17,12
1017637,-3.16,-3.67,8.59,0.20,0.30,-1.11,41.50,18.31,-5.81,1.34,-0.05,0.89,-4.50,-3.62,7.70,0.93,-0.14,0.28,-0.18,12
1017677,-3.20,-3.79,8.25,0.77,-0.03,-1.31,41.69,18.56,-4.69,0.52,-0.74,0.66,-4.30,-3.62,7.81,0.93,-0.14,0.28,-0.21,12
1017718,-3.66,-3.21,7.40,0.56,0.31,-1.35,39.62,18.50,-6.06,0.55,0.48,-0.42,-4.21,-3.70,7.82,0.92,-0.13,0.27,-0.24,12
1017758,-6.11,-4.36,6.98,-0.61,0.80,-0.32,40.19,18.50,-5.62,-1.75,-0.43,-0.63,-4.37,-3.93,7.61,0.91,-0.14,0.28,-0.26,12
1017798,-7.50,-4.78,6.44,-0.67,-0.20,0.52,43.12,19.88,-4.94,-3.12,-0.73,-1.11,-4.38,-4.05,7.55,0.91,-0.15,0.29,-0.25,12
1017837,-4.46,-3.86,7.13,-0.36,-0.74,0.57,43.25,18.88,-3.44,-0.80,0.13,-0.66,-4.27,-4.07,7.59,0.92,-0.16,0.28,-0.24,12
1017878,-4.70,-4.36,7.48,-0.61,-0.30,0.91,44.31,19.88,-3.31,-0.36,-0.26,-0.06,-4.34,-4.10,7.54,0.92,-0.17,0.28,-0.22,12
1017918,-4.70,-3.90,6.71,-0.67,-0.36,0.80,43.62,18.69,-3.75,-0.34,0.28,-0.78,-4.35,-4.18,7.49,0.92,-0.17,0.28,-0.20,12
1017958,-3.85,-3.86,7.21,-1.03,-0.85,0.46,44.94,19.56,-2.12,0.33,0.54,-0.26,-4.18,-4.40,7.47,0.93,-0.19,0.27,-0.18,12
1017999,-2.02,-5.16,8.93,-0.05,-0.98,-0.14,43.50,19.50,-2.31,0.86,-0.53,1.16,-3.88,-4.48,7.58,0.93,-0.20,0.26,-0.17,12
1018039,-2.70,-4.70,8.09,-0.39,-0.07,-0.04,41.88,19.94,-1.88,1.11,-0.10,0.55,-3.81,-4.60,7.54,0.93,-0.21,0.25,-0.17,12
1018079,-3.39,-4.66,7.75,-0.48,0.47,0.00,40.69,19.25,-3.06,0.55,0.08,0.36,-3.95,-4.74,7.38,0.93,-0.22,0.25,-0.16,12
1018119,-3.59,-4.82,7.78,0.18,0.03,-0.81,40.88,20.19,-2.69,0.25,0.00,0.40,-3.84,-4.82,7.38,0.92,-0.22,0.26,-0.17,12
1018159,-4.04,-5.09,7.29,0.22,0.09,-0.57,41.56,20.75,-1.56,0.08,-0.37,0.02,-3.74,-4.84,7.42,0.92,-0.22,0.26,-0.19,12
1018199,-5.50,-5.05,6.79,0.45,0.25,-0.11,41.69,19.00,-2.56,-1.72,-0.34,-0.70,-3.78,-4.70,7.48,0.92,-0.22,0.26,-0.20,12
1018239,-5.27,-4.63,6.59,0.84,-0.47,0.60,42.19,19.19,-4.62,-1.48,-0.26,-1.10,-3.79,-4.37,7.70,0.93,-0.20,0.25,-0.19,12
1018279,-4.01,-4.32,7.55,0.57,-0.21,1.00,43.50,18.12,-4.06,-0.12,-0.28,-0.28,-3.88,-4.04,7.83,0.93,-0.19,0.25,-0.18,12
1018319,-2.70,-3.98,8.43,0.55,-0.29,0.68,43.00,18.94,-4.94,0.16,-0.36,-0.01,-3.90,-3.77,7.95,0.94,-0.17,0.25,-0.17,12
1018359,-1.71,-3.55,8.93,0.19,-0.37,0.01,44.00,18.75,-4.38,2.08,0.16,0.90,-3.79,-3.71,8.03,0.94,-0.16,0.24,-0.16,12
1018399,-2.86,-3.71,8.66,-0.15,0.29,-0.36,41.31,18.38,-6.94,0.92,0.07,0.66,-3.77,-3.78,8.01,0.94,-0.17,0.24,-0.16,12
1018439,-2.13,-3.82,8.89,0.73,-0.29,-1.29,40.38,18.25,-7.06,1.39,-0.06,0.76,-3.52,-3.77,8.13,0.94,-0.16,0.23,-0.18,12
1018480,-2.86,-3.55,8.01,0.50,0.36,-1.09,38.25,18.38,-6.56,1.31,-0.07,0.43,-3.48,-3.76,8.16,0.94,-0.16,0.23,-0.21,12
1018519,-5.39,-4.13,6.90,0.10,0.95,-0.76,39.19,19.00,-6.50,0.77,0.23,-0.07,-3.62,-3.78,8.08,0.93,-0.15,0.24,-0.23,12
1018559,-7.42,-4.86,6.94,0.89,-0.07,0.14,37.00,18.06,-8.12,-3.78,-1.35,-1.26,-3.63,-3.51,8.20,0.93,-0.14,0.24,-0.24,12
1018599,-4.81,-3.98,7.66,0.91,-1.01,0.86,38.31,17.38,-10.56,-1.34,-0.84,-0.75,-3.47,-3.13,8.42,0.94,-0.13,0.23,-0.23,12
1018640,-3.32,-2.94,8.63,-0.13,0.08,0.96,40.94,16.94,-8.00,0.96,0.08,0.26,-3.59,-3.02,8.41,0.94,-0.12,0.22,-0.21,12
1018679,-4.24,-3.25,8.17,-0.24,0.19,0.68,42.38,17.00,-7.44,0.42,0.08,0.27,-3.73,-3.02,8.35,0.95,-0.12,0.23,-0.20,12
1018719,-2.63,-2.79,8.81,-0.11,-0.24,0.43,40.69,16.94,-9.44,1.08,0.21,0.45,-3.71,-3.00,8.37,0.95,-0.12,0.23,-0.19,12
1018759,-1.75,-2.64,9.27,0.20,-0.19,-0.12,40.88,16.31,-8.00,1.93,0.34,0.89,-3.67,-2.98,8.39,0.95,-0.12,0.22,-0.18,12
1018801,-2.74,-3.02,8.97,-0.05,0.33,-0.39,40.88,17.50,-8.81,1.03,0.22,0.37,-3.70,-3.01,8.37,0.95,-0.12,0.23,-0.19,12
1018839,-1.94,-2.71,9.09,0.74,-0.24,-1.07,39.69,17.38,-7.81,0.77,-0.07,0.50,-3.52,-2.95,8.47,0.95,-0.11,0.22,-0.20,12
1018879,-3.12,-3.21,8.63,0.62,0.29,-1.10,35.50,17.50,-11.25,0.35,-0.32,0.12,-3.48,-2.89,8.51,0.94,-0.11,0.22,-0.23,12
1018919,-4.24,-3.29,7.97,0.73,0.10,-0.85,34.38,16.81,-12.50,-0.82,-0.52,-0.60,-3.41,-2.77,8.57,0.94,-0.10,0.22,-0.25,12
1018961,-5.35,-3.21,8.25,0.59,-0.26,-0.39,33.31,15.94,-12.94,-1.89,-0.64,-0.72,-3.30,-2.64,8.66,0.94,-0.09,0.21,-0.26,12
1019000,-3.82,-2.87,8.51,0.15,-0.44,0.09,33.44,16.19,-12.19,-2.17,-0.62,-0.48,-3.18,-2.59,8.72,0.94,-0.09,0.21,-0.27,12
1019040,-3.51,-2.83,8.47,-0.28,-0.11,0.57,36.31,16.94,-11.50,-0.30,-0.23,-0.23,-3.20,-2.60,8.70,0.94,-0.09,0.20,-0.26,12
1019080,-4.20,-2.90,8.39,-0.74,0.40,1.04,35.81,16.69,-11.56,-0.77,-0.19,-0.19,-3.43,-2.71,8.59,0.94,-0.09,0.21,-0.24,12
1019123,-2.63,-2.67,8.82,-0.38,-0.25,0.64,38.06,15.62,-10.50,0.12,0.20,0.02,-3.44,-2.76,8.57,0.95,-0.10,0.21,-0.22,12
1019160,-2.05,-2.56,9.09,-0.12,-0.16,0.55,38.25,16.50,-10.12,0.82,0.05,0.24,-3.45,-2.73,8.58,0.95,-0.10,0.21,-0.21,12
1019200,-2.02,-2.48,9.24,0.03,0.18,0.32,38.56,15.94,-10.44,1.52,0.21,0.68,-3.53,-2.69,8.56,0.95,-0.10,0.21,-0.20,12
1019240,-3.39,-2.71,8.71,-0.09,0.35,0.04,37.25,15.19,-10.19,0.25,-0.02,0.19,-3.64,-2.69,8.52,0.95,-0.10,0.22,-0.20,12
1019283,-3.85,-2.79,8.51,0.07,-0.00,-0.01,37.56,16.19,-11.62,-0.62,-0.19,-0.20,-3.65,-2.68,8.52,0.95,-0.10,0.22,-0.20,12
1019320,-3.39,-2.83,8.67,0.05,-0.14,0.01,38.88,16.19,-9.00,-0.25,-0.13,-0.03,-3.60,-2.66,8.54,0.95,-0.10,0.22,-0.20,12
1019360,-3.55,-2.71,8.62,-0.01,0.04,0.04,38.56,15.62,-10.44,0.06,-0.05,0.09,-3.61,-2.66,8.54,0.95,-0.10,0.22,-0.20,12
1019400,-3.70,-2.71,8.51,-0.03,-0.11,0.06,38.12,15.56,-10.12,-0.12,-0.05,-0.05,-3.58,-2.66,8.55,0.95,-0.10,0.22,-0.20,12
1019440,-3.55,-2.67,8.59,-0.04,-0.03,0.08,37.94,15.31,-11.25,0.02,-0.01,0.03,-3.57,-2.66,8.55,0.95,-0.10,0.22,-0.20,12
1019480,-3.70,-2.56,8.51,-0.02,0.10,0.01,38.31,15.88,-9.38,0.32,0.07,0.12,-3.60,-2.67,8.54,0.95,-0.10,0.22,-0.20,12
1019520,-3.59,-2.83,8.63,0.05,-0.09,-0.04,38.56,15.62,-10.44,-0.02,-0.15,0.07,-3.56,-2.68,8.55,0.95,-0.10,0.22,-0.20,12
1019560,-3.36,-2.75,8.81,-0.10,-0.02,-0.34,37.31,15.81,-10.25,0.16,0.00,0.27,-3.52,-2.75,8.55,0.95,-0.10,0.22,-0.20,12
1019601,-3.28,-2.56,8.71,0.05,-0.21,-0.44,36.56,15.19,-11.38,0.12,0.25,0.12,-3.40,-2.80,8.58,0.95,-0.10,0.21,-0.21,12
1019640,-1.67,-2.64,9.20,0.09,-0.25,-1.07,36.50,17.25,-10.75,0.80,0.31,0.43,-3.20,-2.95,8.62,0.95,-0.11,0.21,-0.22,12
1019680,-0.98,-2.67,9.31,0.01,0.11,-1.53,33.19,18.25,-12.69,2.06,0.46,0.71,-3.04,-3.13,8.60,0.94,-0.11,0.20,-0.24,12
1019720,-0.98,-3.02,8.77,0.05,0.31,-2.41,32.38,20.00,-13.56,1.89,0.34,0.20,-2.88,-3.36,8.58,0.93,-0.12,0.20,-0.28,12
1019760,-2.70,-4.25,8.67,0.46,0.46,-1.92,29.81,18.19,-11.62,0.07,-0.83,0.08,-2.77,-3.41,8.59,0.92,-0.12,0.20,-0.33,12
1019800,-6.38,-4.40,7.62,0.57,-0.16,-1.05,29.31,19.69,-13.25,-2.42,-1.25,-0.78,-2.59,-3.34,8.68,0.90,-0.11,0.20,-0.36,12
1019840,-5.62,-4.25,7.86,-0.04,-0.38,0.56,27.25,18.38,-13.44,-3.18,-0.98,-0.89,-2.44,-3.27,8.75,0.91,-0.11,0.19,-0.36,12
1019880,-7.15,-5.51,7.21,-1.03,-0.60,2.59,31.00,18.31,-12.56,-4.60,-2.20,-1.50,-2.55,-3.30,8.70,0.92,-0.12,0.18,-0.34,12
1019920,-4.73,-3.55,7.05,-0.64,-0.59,3.10,33.00,17.06,-12.69,-1.98,-0.34,-1.62,-2.75,-3.22,8.68,0.93,-0.12,0.19,-0.28,12
1019960,-0.02,-3.79,10.00,-0.51,-1.01,1.61,35.12,17.12,-10.94,1.94,0.61,0.11,-2.65,-3.24,8.70,0.95,-0.13,0.18,-0.23,12
1020001,1.09,-3.06,9.70,-0.53,-0.50,1.09,34.88,16.88,-12.44,3.71,0.24,1.01,-2.62,-3.30,8.69,0.95,-0.14,0.17,-0.20,12
1020041,2.01,-2.48,10.28,-0.02,0.33,0.04,34.94,18.31,-10.25,4.80,0.87,1.66,-2.79,-3.35,8.61,0.96,-0.14,0.17,-0.18,12
1020082,-0.25,-2.79,9.43,-0.18,1.22,-0.82,36.44,18.94,-9.75,2.80,0.71,0.96,-3.05,-3.50,8.47,0.95,-0.15,0.19,-0.19,12
1020121,-3.66,-4.40,8.12,0.38,0.18,-1.86,33.81,18.69,-9.00,0.92,-0.15,0.68,-2.90,-3.59,8.48,0.94,-0.15,0.20,-0.22,12
1020161,-4.35,-4.25,7.70,0.05,0.39,-0.85,35.06,18.81,-9.94,-1.48,-0.59,-0.75,-2.88,-3.66,8.46,0.94,-0.15,0.20,-0.25,12
1020202,-4.93,-4.13,7.63,0.16,0.39,0.02,36.62,18.44,-10.81,-1.92,-0.51,-0.81,-3.01,-3.62,8.44,0.93,-0.14,0.21,-0.26,12
1020242,-4.85,-3.71,7.74,0.21,0.06,0.60,35.56,18.56,-9.50,-1.74,-0.21,-0.71,-3.11,-3.50,8.45,0.93,-0.14,0.21,-0.25,12
1020282,-2.82,-3.55,8.55,-0.18,-0.11,0.03,36.94,18.38,-8.94,-0.05,0.18,0.06,-3.08,-3.55,8.45,0.94,-0.14,0.21,-0.25,12
1020322,-1.98,-3.55,8.86,-0.48,-0.12,-0.10,36.75,17.50,-9.31,1.09,0.16,0.48,-3.06,-3.72,8.38,0.94,-0.14,0.21,-0.25,12
1020362,-2.59,-3.71,8.51,-0.59,0.39,-0.21,38.50,19.31,-8.44,0.55,0.21,0.25,-3.14,-3.91,8.26,0.93,-0.15,0.21,-0.25,12
1020402,-2.25,-3.67,8.85,0.25,-0.20,-0.98,36.31,19.75,-8.31,0.73,0.29,0.57,-2.98,-3.96,8.29,0.93,-0.16,0.22,-0.26,12
1020442,-3.78,-4.63,7.90,0.17,0.36,-0.79,35.75,19.62,-6.62,1.11,0.38,0.14,-2.94,-3.98,8.30,0.92,-0.16,0.21,-0.28,12
1020482,-4.20,-4.05,7.90,0.35,0.03,-0.17,35.25,19.44,-9.19,-1.28,-0.16,-0.45,-2.92,-3.89,8.34,0.92,-0.15,0.21,-0.29,12
1020522,-4.39,-4.21,7.97,0.47,-0.23,0.20,34.19,17.56,-8.88,-1.51,-0.50,-0.46,-2.88,-3.71,8.44,0.92,-0.15,0.21,-0.29,12
1020562,-3.78,-4.09,8.21,0.65,-0.43,0.32,34.19,17.56,-8.88,-0.96,-0.61,-0.35,-2.81,-3.48,8.55,0.93,-0.14,0.20,-0.28,12
1020602,-3.16,-3.67,8.32,-0.51,0.10,0.78,36.00,18.56,-9.06,-0.14,0.06,-0.27,-2.91,-3.54,8.51,0.93,-0.13,0.20,-0.27,12
1020642,-2.17,-3.44,8.89,-0.52,-0.33,0.35,34.25,17.56,-8.50,0.69,0.23,0.43,-2.86,-3.67,8.47,0.93,-0.14,0.20,-0.26,12
1022459,-0.37,-3.67,9.35,-0.12,0.28,-0.51,32.50,19.69,-7.38,1.54,0.35,0.75,-1.91,-4.02,8.60,0.94,-0.18,0.15,-0.24,12
1022500,-0.48,-3.71,9.12,0.37,0.08,-1.31,32.00,18.69,-12.12,1.35,0.32,0.51,-1.83,-4.03,8.61,0.94,-0.18,0.15,-0.26,12
1022540,-0.71,-4.28,8.86,0.36,0.51,-0.96,30.44,19.44,-11.31,1.02,-0.28,0.21,-1.73,-4.00,8.65,0.93,-0.18,0.15,-0.28,12
1022580,-1.36,-3.82,8.43,0.46,0.92,-0.96,30.38,19.44,-11.62,0.47,0.07,-0.25,-1.84,-3.89,8.68,0.92,-0.16,0.16,-0.31,12
1022620,-2.28,-4.40,8.55,0.21,0.25,-0.66,31.06,19.25,-12.62,-0.37,-0.55,-0.14,-1.91,-3.84,8.69,0.92,-0.16,0.16,-0.33,12
1022660,-3.16,-4.28,8.20,0.06,0.26,-0.27,31.56,19.25,-12.56,-1.23,-0.45,-0.48,-1.93,-3.84,8.69,0.91,-0.15,0.17,-0.34,12
1022700,-3.78,-4.44,8.01,0.12,-0.52,0.11,30.75,19.81,-12.38,-1.88,-0.61,-0.68,-1.90,-3.83,8.70,0.91,-0.15,0.16,-0.34,12
1022740,-2.21,-3.98,8.51,0.01,-0.22,-0.09,30.81,19.12,-11.56,-0.49,-0.20,-0.24,-1.72,-3.78,8.75,0.92,-0.16,0.15,-0.33,12
1022780,0.48,-3.25,9.62,-0.37,0.50,-0.66,29.94,19.69,-12.12,2.26,0.65,0.93,-1.78,-3.90,8.69,0.91,-0.16,0.16,-0.34,12
1022826,-0.29,-3.48,8.70,-0.03,0.21,-1.00,30.19,19.12,-12.38,1.34,0.49,0.02,-1.63,-3.97,8.69,0.91,-0.16,0.16,-0.36,12
1022860,0.40,-3.25,9.12,0.16,1.37,-1.17,28.12,20.12,-12.38,2.16,0.79,0.50,-1.77,-4.04,8.62,0.89,-0.16,0.17,-0.38,12
1022900,-3.28,-5.39,8.24,0.32,0.05,-0.61,29.81,21.44,-11.44,-1.39,-1.37,-0.38,-1.88,-4.02,8.62,0.89,-0.15,0.18,-0.40,12
1022940,-4.08,-4.86,7.86,0.02,0.15,-0.50,30.31,20.62,-12.81,-2.31,-0.87,-0.80,-1.77,-3.98,8.66,0.88,-0.15,0.18,-0.41,12
1022980,-3.01,-4.40,8.13,0.08,0.00,-0.19,27.25,20.69,-12.81,-1.24,-0.39,-0.52,-1.77,-4.01,8.64,0.88,-0.15,0.18,-0.42,12
1023020,-1.82,-4.09,8.67,-0.01,-0.16,-0.16,28.00,20.12,-13.06,-0.11,-0.09,0.01,-1.71,-4.00,8.66,0.88,-0.15,0.17,-0.42,12
1023060,-1.17,-3.98,8.86,0.05,-0.01,-0.30,27.88,21.00,-11.69,0.47,0.03,0.18,-1.64,-4.01,8.67,0.88,-0.15,0.17,-0.42,12
1023100,-0.60,-3.75,8.93,0.10,0.19,-0.32,27.69,19.75,-12.00,1.04,0.25,0.26,-1.63,-4.00,8.67,0.87,-0.15,0.17,-0.43,12
1023142,-1.63,-4.02,8.67,0.02,0.30,-0.38,26.31,20.62,-12.94,0.02,-0.02,-0.01,-1.66,-3.99,8.67,0.87,-0.15,0.17,-0.44,12
1023186,-2.36,-4.36,8.43,-0.01,-0.00,-0.20,26.81,20.62,-12.88,-0.69,-0.34,-0.22,-1.67,-4.02,8.66,0.87,-0.15,0.18,-0.44,12
1023220,-2.47,-4.32,8.31,0.03,-0.19,0.14,27.56,20.62,-10.94,-0.84,-0.30,-0.35,-1.63,-4.02,8.66,0.87,-0.15,0.17,-0.44,12
1023260,-2.40,-4.28,8.31,-0.01,-0.13,-0.02,25.19,19.38,-13.38,-0.82,-0.28,-0.37,-1.58,-4.00,8.69,0.87,-0.15,0.17,-0.44,12
1023302,-0.60,-3.75,8.89,-0.22,0.03,-0.06,26.94,21.50,-12.56,0.94,0.30,0.22,-1.54,-4.05,8.67,0.87,-0.15,0.17,-0.44,12
1023340,-0.64,-3.67,8.93,0.02,0.50,-0.32,25.44,21.12,-13.06,0.99,0.43,0.30,-1.62,-4.10,8.63,0.87,-0.15,0.18,-0.44,12
1023380,-1.06,-3.75,8.85,0.23,0.28,-0.64,28.00,20.94,-10.94,0.61,0.33,0.22,-1.67,-4.08,8.63,0.86,-0.15,0.18,-0.46,12
1023420,-1.94,-4.74,8.51,0.07,0.17,-0.22,26.81,20.31,-12.44,-0.27,-0.68,-0.13,-1.66,-4.06,8.64,0.86,-0.15,0.18,-0.46,12
1023462,-2.44,-4.25,8.43,0.02,0.11,-0.11,24.38,20.19,-13.94,-0.71,-0.17,-0.19,-1.73,-4.08,8.62,0.85,-0.15,0.18,-0.47,12
1023500,-2.28,-4.36,8.39,0.05,-0.10,-0.05,24.38,19.88,-13.50,-0.58,-0.29,-0.23,-1.70,-4.07,8.62,0.85,-0.15,0.18,-0.47,12
1023541,-1.29,-4.02,8.73,0.01,0.07,-0.08,26.56,21.19,-12.19,0.41,0.05,0.11,-1.70,-4.06,8.63,0.85,-0.15,0.18,-0.47,12
1023581,-1.52,-3.98,8.73,0.26,-0.18,-0.28,25.56,21.12,-12.31,0.14,0.07,0.09,-1.66,-4.05,8.65,0.85,-0.14,0.18,-0.47,12
1023624,-0.75,-3.75,8.93,0.23,0.17,-0.42,25.81,20.56,-13.38,0.87,0.26,0.26,-1.62,-4.01,8.67,0.85,-0.14,0.18,-0.48,12
1023661,-1.21,-3.71,8.70,0.38,-0.05,-0.61,22.88,20.06,-14.44,0.34,0.20,-0.02,-1.55,-3.91,8.73,0.85,-0.14,0.17,-0.49,12
1023701,-1.29,-3.79,8.70,0.20,0.01,-0.37,22.38,19.75,-14.50,0.17,0.08,-0.07,-1.45,-3.87,8.77,0.84,-0.14,0.17,-0.50,12
1023741,-1.67,-4.05,8.89,0.50,-0.06,-0.30,23.00,20.69,-14.44,-0.25,-0.29,0.07,-1.41,-3.77,8.82,0.84,-0.13,0.17,-0.50,12
1023784,-1.40,-3.98,8.93,0.18,0.02,-0.46,20.25,20.00,-16.94,-0.09,-0.36,0.03,-1.31,-3.62,8.90,0.84,-0.13,0.16,-0.51,12
1023821,-1.86,-4.09,8.85,-0.04,-0.01,-0.17,18.62,19.50,-16.06,-0.57,-0.46,-0.04,-1.29,-3.63,8.89,0.83,-0.13,0.16,-0.51,12
1023861,-1.44,-3.71,8.86,-0.01,-0.05,-0.27,18.19,19.50,-15.75,-0.21,-0.05,-0.04,-1.23,-3.66,8.89,0.83,-0.13,0.16,-0.52,12
1023905,-0.98,-3.55,8.93,0.03,-0.05,-0.27,17.19,19.44,-16.19,0.20,0.09,0.02,-1.18,-3.65,8.91,0.83,-0.13,0.16,-0.52,12
1023944,-1.02,-3.52,9.01,0.35,-0.08,-0.39,18.56,19.06,-18.19,0.11,0.10,0.09,-1.13,-3.62,8.92,0.83,-0.13,0.15,-0.53,12
1023981,-0.90,-3.52,8.93,0.35,-0.10,-0.13,18.75,20.19,-17.88,0.14,0.00,-0.05,-1.05,-3.52,8.98,0.82,-0.12,0.15,-0.53,12
1024021,-1.06,-3.59,8.93,0.53,-0.06,0.07,16.56,18.81,-16.62,-0.07,-0.23,-0.10,-0.99,-3.37,9.03,0.83,-0.12,0.14,-0.53,12
1024061,-1.13,-3.44,8.97,0.16,0.04,-0.10,16.75,19.19,-18.81,-0.16,-0.22,-0.12,-0.98,-3.22,9.09,0.83,-0.11,0.13,-0.53,12
1024105,-0.94,-3.21,9.20,-0.17,0.22,0.02,18.56,18.75,-18.19,0.07,0.02,0.12,-1.02,-3.23,9.08,0.83,-0.11,0.14,-0.53,12
1024141,-1.09,-3.29,9.05,0.01,0.10,-0.13,17.25,18.31,-17.62,-0.01,-0.01,-0.01,-1.09,-3.27,9.05,0.83,-0.11,0.14,-0.54,12
1024181,-1.09,-3.36,9.05,-0.08,0.17,-0.19,18.69,19.19,-15.25,0.05,-0.07,0.00,-1.14,-3.30,9.05,0.82,-0.11,0.14,-0.53,12
1024221,-0.90,-3.29,9.09,-0.32,0.15,0.09,18.19,18.69,-17.88,0.32,0.09,0.08,-1.23,-3.38,9.01,0.82,-0.11,0.15,-0.53,12
1024262,-1.32,-3.44,8.97,-0.18,0.03,0.00,19.75,19.31,-16.62,-0.04,0.01,0.01,-1.29,-3.45,8.96,0.82,-0.11,0.16,-0.53,12
1024301,-1.29,-3.55,9.01,-0.22,-0.19,-0.05,18.75,19.81,-15.31,-0.06,-0.03,0.06,-1.23,-3.52,8.95,0.82,-0.12,0.16,-0.53,12
1024342,-0.79,-3.36,9.12,-0.39,-0.21,0.02,20.19,19.88,-14.44,0.37,0.27,0.20,-1.16,-3.63,8.92,0.82,-0.13,0.16,-0.53,12
1024381,-0.45,-3.21,9.23,-0.69,-0.53,0.20,18.94,19.88,-16.75,0.68,0.62,0.40,-1.12,-3.83,8.84,0.82,-0.14,0.16,-0.53,12
1024422,-0.02,-3.13,9.09,-0.66,-0.09,-0.11,17.38,20.00,-15.44,0.96,0.91,0.33,-0.98,-4.05,8.76,0.82,-0.15,0.16,-0.53,12
1024461,-0.45,-3.79,8.82,-0.38,0.19,-0.55,17.38,20.00,-15.44,0.52,0.47,0.16,-0.97,-4.26,8.66,0.82,-0.16,0.17,-0.53,12
1024502,-1.59,-4.74,8.47,-0.21,0.30,-0.47,19.25,21.19,-13.44,-0.62,-0.38,-0.13,-0.97,-4.37,8.60,0.81,-0.16,0.17,-0.54,12
1024542,-2.09,-5.05,8.05,-0.46,0.13,-0.09,20.25,22.19,-13.06,-1.12,-0.55,-0.49,-0.97,-4.49,8.54,0.81,-0.17,0.18,-0.54,12
1024583,-2.09,-5.28,8.21,-0.21,-0.09,-0.12,19.38,22.12,-13.12,-1.13,-0.64,-0.26,-0.96,-4.63,8.46,0.80,-0.18,0.18,-0.54,12
1024623,-1.13,-4.70,8.29,-0.04,0.09,0.05,19.38,22.12,-13.12,-0.18,-0.03,-0.16,-0.95,-4.67,8.45,0.80,-0.18,0.18,-0.54,12
1024663,-0.60,-4.51,8.39,0.09,0.24,-0.01,19.69,22.38,-11.69,0.42,0.14,-0.05,-1.02,-4.66,8.45,0.80,-0.17,0.18,-0.54,12
1024703,-0.71,-4.59,8.55,0.94,0.01,-0.02,18.62,21.19,-14.31,0.34,-0.09,0.02,-1.05,-4.50,8.52,0.80,-0.17,0.18,-0.54,12
1024743,-0.94,-5.09,9.20,1.91,-0.41,-0.54,19.12,21.94,-17.19,-0.00,-1.27,0.33,-0.94,-3.82,8.87,0.81,-0.14,0.16,-0.55,12
1024783,-0.75,-3.67,9.01,0.02,0.34,-0.08,19.12,21.94,-17.19,0.14,-0.05,0.05,-0.89,-3.62,8.96,0.81,-0.13,0.15,-0.56,12
1024826,-1.48,-3.86,9.12,-0.00,0.04,-0.01,15.19,20.44,-15.75,-0.56,-0.26,0.16,-0.91,-3.60,8.96,0.80,-0.13,0.15,-0.56,12
1024863,-1.36,-3.75,8.93,0.20,0.07,-0.15,15.31,20.06,-20.12,-0.43,-0.17,-0.04,-0.93,-3.58,8.97,0.80,-0.13,0.15,-0.56,12
1024903,-1.09,-3.75,8.97,0.17,0.21,-0.16,15.44,19.69,-19.00,-0.17,-0.23,-0.02,-0.92,-3.52,8.99,0.80,-0.12,0.15,-0.56,12
1024943,-0.37,-3.29,9.39,1.25,0.03,-0.59,14.88,19.38,-19.38,0.53,-0.11,0.27,-0.90,-3.18,9.12,0.80,-0.11,0.14,-0.58,12
1024983,-1.17,-2.52,8.29,0.09,-0.10,-0.72,15.31,17.94,-18.56,-0.34,0.39,-0.93,-0.83,-2.91,9.21,0.79,-0.10,0.13,-0.59,12
1025023,-0.56,-2.67,8.73,0.42,-0.16,-0.57,13.62,17.56,-20.19,0.14,0.12,-0.53,-0.70,-2.79,9.27,0.79,-0.09,0.12,-0.60,12
1025063,-0.83,-2.87,9.05,1.02,-0.15,-0.36,12.69,17.19,-20.69,-0.30,-0.30,-0.29,-0.53,-2.57,9.34,0.78,-0.09,0.10,-0.61,12
1025109,-0.83,-2.56,9.28,0.58,-0.29,-0.28,11.19,15.94,-20.75,-0.38,-0.31,-0.14,-0.45,-2.25,9.41,0.78,-0.08,0.09,-0.62,12
1025143,-1.32,-2.90,9.62,0.45,-0.46,0.04,9.25,16.00,-19.19,-0.97,-0.84,0.15,-0.35,-2.06,9.47,0.78,-0.07,0.08,-0.62,12
1025183,-1.32,-2.56,9.27,0.12,-0.23,0.54,11.25,15.31,-20.06,-1.15,-0.61,-0.21,-0.17,-1.95,9.49,0.78,-0.07,0.07,-0.62,12
1025223,-1.79,-2.60,9.27,-0.05,0.21,1.82,10.56,15.31,-21.56,-1.48,-0.66,-0.22,-0.30,-1.94,9.50,0.80,-0.07,0.07,-0.60,12
1025263,-1.75,-2.79,9.01,0.14,-0.08,2.02,11.06,15.06,-21.19,-1.29,-0.88,-0.49,-0.46,-1.91,9.50,0.82,-0.07,0.08,-0.56,12
1025303,-0.71,-2.52,9.70,-0.24,-0.21,2.05,14.81,15.19,-17.06,-0.16,-0.65,0.20,-0.55,-1.87,9.50,0.84,-0.07,0.07,-0.53,12
1025347,0.40,-1.95,9.35,-0.09,-0.64,1.10,17.81,16.06,-18.12,0.98,-0.03,-0.14,-0.58,-1.91,9.49,0.86,-0.07,0.07,-0.50,12
1025383,1.70,-1.45,10.12,0.01,-0.53,0.65,16.31,15.62,-18.69,2.16,0.45,0.62,-0.45,-1.90,9.49,0.87,-0.07,0.07,-0.48,12
1025423,2.93,-0.95,10.39,-0.00,0.34,0.09,20.19,15.88,-17.12,3.31,0.94,0.89,-0.38,-1.89,9.50,0.87,-0.08,0.06,-0.48,12
1025463,-0.48,-1.95,9.66,0.07,0.26,0.08,18.38,15.50,-16.62,0.07,-0.06,0.16,-0.55,-1.88,9.50,0.87,-0.07,0.07,-0.48,12
1025503,-1.94,-2.60,10.27,0.75,0.66,0.15,18.31,15.19,-16.94,-1.29,-0.84,0.76,-0.65,-1.76,9.52,0.87,-0.06,0.07,-0.48,12
1025543,-1.79,-3.09,11.65,0.70,0.63,0.74,17.69,14.38,-19.88,-0.82,-1.56,2.12,-0.96,-1.53,9.53,0.88,-0.05,0.08,-0.47,12
1025583,-0.52,-1.14,9.39,-0.07,0.44,-0.09,19.56,13.12,-21.44,0.61,0.19,-0.16,-1.13,-1.33,9.55,0.88,-0.03,0.08,-0.46,12
1025624,-1.29,-1.18,8.81,-0.79,-0.09,0.02,20.19,13.00,-17.69,-0.05,0.41,-0.68,-1.23,-1.59,9.49,0.88,-0.04,0.09,-0.46,12
1025664,-1.02,-1.41,9.20,-0.81,-0.27,0.27,21.50,15.25,-19.12,0.14,0.45,-0.25,-1.16,-1.86,9.45,0.88,-0.06,0.10,-0.46,12
1025704,-0.98,-1.45,9.12,-0.62,-0.15,0.26,24.31,15.75,-18.81,0.14,0.69,-0.28,-1.12,-2.14,9.40,0.88,-0.07,0.10,-0.45,12
1025750,-0.87,-2.10,9.36,-0.26,-0.12,0.29,23.44,16.56,-19.25,0.21,0.20,-0.02,-1.08,-2.30,9.37,0.89,-0.08,0.10,-0.44,12
1025784,-0.98,-2.21,9.43,-0.23,0.04,0.32,22.19,15.25,-17.94,0.13,0.15,0.09,-1.11,-2.37,9.34,0.89,-0.08,0.11,-0.44,12
1025824,-1.52,-2.67,9.31,-0.40,0.08,0.61,23.62,15.31,-17.00,-0.35,-0.20,0.00,-1.16,-2.47,9.31,0.89,-0.09,0.11,-0.43,12
1025864,-1.86,-2.67,9.16,-0.18,-0.05,0.71,23.38,16.75,-17.44,-0.61,-0.12,-0.12,-1.26,-2.55,9.28,0.90,-0.09,0.11,-0.42,12
1025904,-1.44,-2.64,9.35,-0.32,-0.10,0.72,23.81,16.50,-16.69,-0.17,-0.05,0.09,-1.27,-2.59,9.27,0.90,-0.09,0.11,-0.40,12
1025944,-2.47,-3.25,8.93,-0.50,0.54,1.99,25.81,16.31,-15.69,-0.99,-0.59,-0.29,-1.48,-2.66,9.22,0.91,-0.10,0.12,-0.38,12
1025988,-3.47,-3.13,8.17,-0.04,1.24,2.91,28.56,16.81,-15.38,-1.50,-0.55,-0.98,-1.97,-2.59,9.15,0.93,-0.09,0.14,-0.34,12
1026024,-2.86,-2.75,8.09,0.80,0.25,2.45,32.88,15.06,-14.75,-0.26,-0.55,-1.00,-2.59,-2.20,9.09,0.94,-0.07,0.16,-0.28,12
1026064,-1.48,-1.95,10.08,-0.11,-0.64,1.30,34.25,13.50,-15.94,1.22,-0.01,0.96,-2.70,-1.94,9.12,0.95,-0.06,0.16,-0.25,12
1026108,-0.90,-1.33,9.43,0.52,-0.44,0.56,33.62,13.69,-14.94,1.64,0.46,0.24,-2.55,-1.80,9.19,0.96,-0.06,0.15,-0.23,12
1026144,-0.29,-1.41,9.62,0.94,-0.56,0.11,34.81,12.00,-14.38,2.16,0.09,0.36,-2.45,-1.50,9.27,0.96,-0.05,0.14,-0.23,12
1026184,-0.75,-1.37,9.86,0.15,0.29,-0.12,32.12,12.50,-17.31,1.56,-0.08,0.52,-2.31,-1.29,9.34,0.96,-0.04,0.13,-0.23,12
1026224,-2.70,-1.22,8.89,0.63,0.57,-0.30,32.56,11.94,-17.19,-0.15,-0.01,-0.39,-2.55,-1.21,9.28,0.96,-0.03,0.14,-0.23,12
1026264,-3.39,-1.14,8.73,0.71,-0.30,-0.48,33.12,11.12,-15.94,-0.79,-0.17,-0.56,-2.60,-0.97,9.30,0.96,-0.01,0.14,-0.24,12
1026304,-3.39,-0.99,9.54,0.73,-0.44,-0.35,32.19,11.62,-16.50,-1.00,-0.20,0.18,-2.40,-0.79,9.37,0.96,-0.01,0.13,-0.26,12
1026344,-2.86,-1.22,10.23,0.73,0.07,-0.15,30.56,11.00,-18.12,-0.53,-0.69,0.84,-2.33,-0.53,9.40,0.96,0.01,0.12,-0.26,12
1026390,-2.17,0.01,8.82,0.51,0.02,-0.15,31.88,9.94,-17.12,0.19,0.28,-0.59,-2.36,-0.27,9.41,0.96,0.02,0.12,-0.26,12
1026424,-2.28,0.20,9.23,-0.33,0.15,-0.30,31.94,9.62,-16.44,0.07,0.53,-0.17,-2.35,-0.33,9.41,0.95,0.02,0.12,-0.27,12
1026464,-3.09,-0.61,9.58,-0.17,-0.02,-0.18,31.44,9.56,-16.50,-0.77,-0.12,0.18,-2.31,-0.48,9.41,0.95,0.01,0.12,-0.28,12
1026504,-3.32,-1.37,10.81,0.14,0.17,0.29,32.38,10.25,-17.12,-0.95,-0.91,1.42,-2.37,-0.46,9.39,0.95,0.01,0.12,-0.27,12
1026544,-1.86,0.05,8.78,0.56,-0.14,-0.08,31.19,8.69,-17.56,0.53,0.32,-0.61,-2.39,-0.27,9.39,0.95,0.02,0.12,-0.27,12
1026584,-2.28,0.01,9.47,0.74,-0.35,-0.07,30.69,8.69,-17.62,0.00,0.05,0.05,-2.28,-0.05,9.42,0.95,0.03,0.11,-0.28,12
1026625,-1.86,0.35,9.20,0.46,-0.17,-0.11,31.75,8.44,-16.75,0.30,0.13,-0.25,-2.16,0.22,9.45,0.95,0.04,0.10,-0.28,12
1026665,-2.02,0.62,8.35,0.28,-0.22,-0.11,31.75,7.94,-18.88,0.07,0.28,-1.11,-2.09,0.34,9.46,0.95,0.05,0.10,-0.28,12
1026705,-3.39,-0.26,10.54,0.51,0.02,0.53,30.81,7.00,-18.62,-1.35,-0.77,1.07,-2.05,0.51,9.47,0.95,0.06,0.09,-0.28,12
1026745,-2.63,0.54,8.97,0.62,-0.14,0.67,31.50,6.75,-19.56,-0.60,-0.25,-0.48,-2.03,0.79,9.45,0.96,0.07,0.09,-0.27,12
1026785,-1.71,1.04,8.97,1.13,-0.36,0.41,31.38,4.44,-18.75,0.18,-0.11,-0.48,-1.89,1.15,9.45,0.96,0.08,0.08,-0.26,12
1026829,-1.36,1.20,9.77,1.14,0.15,0.29,30.56,4.12,-20.69,0.46,-0.37,0.38,-1.82,1.56,9.40,0.96,0.10,0.07,-0.25,12
1026866,-1.82,1.73,9.35,2.41,-0.35,-0.31,30.62,1.25,-20.88,-0.00,-0.68,0.14,-1.82,2.41,9.21,0.95,0.15,0.06,-0.25,12
1026905,-1.44,3.65,8.09,0.43,0.35,0.12,28.88,0.00,-22.12,0.37,0.80,-1.00,-1.81,2.85,9.09,0.95,0.17,0.05,-0.26,12
1026945,-2.05,3.00,8.86,-0.07,0.50,-0.15,30.00,-0.88,-20.12,-0.06,0.04,-0.17,-1.99,2.95,9.02,0.95,0.18,0.06,-0.26,12
1026986,-2.55,3.19,7.62,-0.99,0.35,-0.03,31.81,-0.75,-19.94,-0.35,0.43,-1.40,-2.20,2.76,9.03,0.95,0.17,0.07,-0.26,12
1027026,-1.25,3.38,8.35,-2.34,-0.29,-0.49,30.94,1.75,-19.44,0.83,1.19,-0.86,-2.08,2.19,9.21,0.95,0.14,0.07,-0.26,12
1027072,-1.55,2.34,7.36,-4.15,0.19,-0.37,31.00,4.50,-21.00,0.50,1.48,-2.07,-2.05,0.87,9.43,0.96,0.07,0.09,-0.26,12
1027106,-2.28,-0.18,9.24,-2.06,-0.16,-0.40,33.44,8.00,-16.81,-0.20,0.27,-0.21,-2.08,-0.45,9.45,0.96,0.01,0.11,-0.26,12
1027146,-0.79,-0.45,9.77,-1.15,-0.66,-1.12,30.50,11.06,-18.44,1.04,0.56,0.33,-1.83,-1.02,9.45,0.95,-0.02,0.11,-0.28,12
1027191,-3.39,-5.12,16.64,5.11,-0.68,0.48,28.31,11.38,-18.06,-1.80,-4.55,7.11,-1.59,-0.58,9.52,0.96,-0.01,0.09,-0.28,12
1027226,-2.89,-1.45,11.19,4.58,-0.90,1.87,28.56,6.06,-20.69,-1.56,-3.16,1.75,-1.34,1.71,9.44,0.96,0.10,0.04,-0.27,12
1027269,-0.18,3.65,4.64,2.27,-1.26,0.14,24.88,-0.06,-22.25,0.71,0.76,-4.55,-0.89,2.89,9.20,0.95,0.16,0.01,-0.26,12
1027306,-0.21,3.19,8.21,2.56,-0.98,-0.21,20.44,-4.69,-24.06,0.23,-0.59,-0.70,-0.45,3.78,8.91,0.94,0.20,-0.03,-0.26,12
1027351,0.63,4.72,7.66,1.88,-1.12,-1.25,20.06,-6.12,-25.12,0.81,0.11,-0.86,-0.18,4.61,8.52,0.93,0.24,-0.06,-0.28,12
1027386,0.71,4.87,8.09,1.89,-0.71,-2.17,19.25,-7.06,-24.44,0.98,-0.25,-0.12,-0.27,5.12,8.21,0.91,0.27,-0.08,-0.31,12
1027429,-0.87,5.33,7.36,0.45,-0.03,-1.06,20.06,-8.62,-20.56,-0.35,-0.14,-0.62,-0.52,5.48,7.98,0.89,0.29,-0.08,-0.34,12
1027466,-1.86,4.95,5.75,-0.84,-0.46,0.44,21.19,-8.50,-22.25,-1.30,-0.47,-2.26,-0.56,5.42,8.01,0.89,0.29,-0.08,-0.35,12
1027508,-2.05,7.18,3.76,-6.69,-0.14,1.02,20.94,-7.38,-22.00,-1.73,2.78,-4.86,-0.33,4.39,8.62,0.91,0.23,-0.07,-0.34,12
1027546,0.40,1.92,8.24,-8.69,0.96,0.17,21.75,2.56,-21.69,0.93,0.61,-1.32,-0.53,1.31,9.56,0.94,0.07,0.00,-0.34,12
1027589,0.74,-2.18,12.38,-0.74,0.07,1.21,27.00,11.75,-15.69,1.47,-1.11,2.81,-0.73,-1.06,9.57,0.94,-0.04,0.05,-0.34,12
1027626,-2.05,-4.70,14.75,-0.29,0.76,0.38,24.12,12.19,-17.12,-1.41,-3.55,5.19,-0.64,-1.16,9.56,0.94,-0.05,0.05,-0.33,12
1027669,-1.40,-0.95,9.43,0.02,0.32,0.20,26.00,12.62,-16.94,-0.36,0.31,-0.07,-1.04,-1.26,9.50,0.94,-0.04,0.07,-0.32,12
1027707,-1.86,-1.29,9.58,0.09,-1.07,0.28,28.81,13.69,-16.62,-1.00,-0.08,0.05,-0.86,-1.21,9.53,0.94,-0.05,0.06,-0.32,12
1027747,-0.90,-1.41,9.86,1.64,-0.10,-0.33,28.31,13.06,-17.06,-0.35,-0.39,0.27,-0.55,-1.02,9.58,0.95,-0.04,0.04,-0.32,12
1027787,-0.87,-2.14,11.19,4.04,0.49,-0.70,25.31,11.25,-19.88,-0.25,-2.31,1.57,-0.62,0.17,9.62,0.94,0.02,0.03,-0.33,12
1027830,0.29,1.16,9.31,3.52,0.30,-1.92,24.25,5.44,-21.88,1.07,-0.41,-0.17,-0.79,1.56,9.48,0.93,0.09,0.01,-0.35,12
1027873,-0.98,2.30,7.67,1.99,-0.11,-1.59,25.06,2.06,-22.75,0.03,-0.33,-1.56,-1.01,2.63,9.23,0.91,0.15,-0.01,-0.39,12
1027907,-1.86,3.65,7.02,0.20,0.41,-0.48,25.56,0.88,-21.88,-0.69,0.80,-2.12,-1.17,2.85,9.14,0.90,0.16,-0.01,-0.41,12
1027947,-2.02,2.88,9.77,-0.79,0.22,-0.44,23.12,1.00,-23.25,-0.72,0.07,0.65,-1.30,2.81,9.12,0.90,0.16,0.00,-0.41,12
1027990,-1.44,3.00,8.55,-2.25,-0.23,0.26,25.56,1.75,-22.25,-0.28,0.69,-0.74,-1.16,2.30,9.29,0.90,0.13,0.00,-0.42,12
1028027,-0.83,2.57,6.21,-5.37,-0.11,0.13,23.62,5.62,-20.88,0.22,1.81,-3.34,-1.05,0.77,9.55,0.91,0.06,0.03,-0.41,12
1028071,-0.33,-0.76,10.16,-0.46,0.29,0.73,24.94,11.31,-17.31,0.70,0.06,0.62,-1.03,-0.82,9.53,0.91,-0.02,0.07,-0.40,12
1028107,-0.90,-3.44,13.61,0.48,0.02,0.65,28.44,12.88,-18.44,0.23,-2.79,4.07,-1.13,-0.65,9.54,0.92,-0.01,0.07,-0.40,12
1028150,-1.44,-0.61,10.08,0.06,-0.68,0.22,26.88,11.88,-19.38,-0.38,-0.05,0.54,-1.06,-0.55,9.54,0.92,-0.01,0.06,-0.39,12
1028187,-1.29,-1.37,10.27,2.33,0.16,0.22,24.94,10.62,-19.50,-0.43,-1.19,0.70,-0.86,-0.18,9.58,0.92,0.01,0.04,-0.39,12
1028227,-1.25,-1.41,11.92,3.42,0.18,0.33,25.75,6.62,-19.19,-0.31,-2.57,2.42,-0.94,1.16,9.50,0.92,0.07,0.02,-0.39,12
1028271,-0.94,1.96,8.13,3.01,-0.02,-0.36,25.31,3.50,-22.38,-0.07,-0.23,-1.20,-0.88,2.19,9.32,0.92,0.12,-0.00,-0.38,12
1028307,-0.33,1.58,10.35,2.34,0.17,-0.91,24.56,-0.56,-23.75,0.61,-1.66,1.33,-0.94,3.23,9.02,0.90,0.18,-0.02,-0.39,12
1028353,-1.40,4.72,8.89,0.89,0.11,-0.45,23.12,-3.06,-22.31,-0.36,0.91,0.11,-1.04,3.80,8.78,0.89,0.21,-0.03,-0.41,12
1028387,-1.29,4.03,7.40,-0.29,0.13,-0.38,23.69,-2.75,-21.94,-0.11,0.12,-1.32,-1.17,3.91,8.72,0.88,0.21,-0.03,-0.41,12
1028427,-0.98,4.61,6.14,-3.21,-0.08,-0.63,22.94,-1.62,-22.44,0.35,1.34,-2.82,-1.33,3.27,8.95,0.89,0.19,-0.01,-0.43,12
1028467,-3.05,3.68,6.86,-3.61,-0.41,0.55,22.69,1.56,-23.38,-2.03,1.66,-2.48,-1.02,2.02,9.34,0.90,0.12,0.00,-0.42,12
1028507,0.05,1.16,8.55,-3.88,-0.29,-0.16,22.69,1.56,-23.38,0.95,0.61,-1.00,-0.90,0.55,9.55,0.91,0.04,0.03,-0.42,12
1028551,-1.06,-0.72,10.46,-2.63,0.15,0.43,22.69,10.12,-18.69,-0.19,-0.02,0.92,-0.87,-0.70,9.55,0.91,-0.02,0.06,-0.41,12
1028587,-0.48,-2.14,12.11,0.13,0.19,0.07,24.38,12.81,-18.94,0.51,-1.21,2.60,-0.99,-0.93,9.51,0.91,-0.02,0.07,-0.41,12
1028627,-1.09,-0.91,9.70,0.08,-0.56,0.41,24.69,12.31,-19.25,-0.12,-0.06,0.18,-0.98,-0.85,9.52,0.91,-0.02,0.06,-0.40,12
1028667,-0.75,-1.22,10.34,1.45,-0.77,0.18,24.69,12.31,-19.25,-0.09,-0.54,0.79,-0.66,-0.68,9.55,0.92,-0.02,0.05,-0.40,12
1028708,-0.79,-1.60,11.08,2.95,0.06,0.21,20.81,9.69,-19.25,-0.23,-1.87,1.49,-0.55,0.27,9.59,0.92,0.02,0.02,-0.39,12
1028748,-0.25,0.43,9.20,2.14,-0.33,-0.34,21.75,5.31,-23.69,0.33,-0.81,-0.31,-0.59,1.24,9.51,0.92,0.07,0.00,-0.40,12
1028789,-0.75,1.35,9.39,2.20,-0.20,-0.50,19.12,3.38,-24.62,-0.25,-0.71,0.02,-0.50,2.05,9.37,0.91,0.11,-0.02,-0.40,12
1028828,-0.14,2.80,7.90,0.99,0.27,-0.43,19.19,-0.12,-24.44,0.46,0.13,-1.31,-0.59,2.67,9.21,0.90,0.14,-0.03,-0.41,12
1028868,-0.87,3.34,9.28,0.52,0.06,-0.22,18.81,-0.44,-23.75,-0.17,0.47,0.14,-0.70,2.87,9.14,0.90,0.15,-0.03,-0.42,12
1028908,-1.63,2.69,9.01,0.06,0.11,-0.32,18.19,-1.38,-24.12,-0.96,-0.31,-0.09,-0.67,3.00,9.10,0.89,0.16,-0.04,-0.42,12
1028949,-0.33,3.34,8.16,-2.23,-0.15,-0.60,18.38,-0.50,-23.44,0.53,0.71,-1.04,-0.86,2.62,9.20,0.89,0.14,-0.02,-0.43,12
1028994,-0.75,3.00,8.09,-4.62,0.07,0.28,20.38,4.06,-23.00,0.01,1.54,-1.37,-0.76,1.46,9.46,0.90,0.09,0.00,-0.42,12
1029028,0.44,0.93,7.36,-5.31,-0.11,-0.38,21.00,9.25,-20.69,1.23,1.57,-2.18,-0.80,-0.65,9.54,0.90,-0.01,0.05,-0.43,12
1029074,-1.29,-4.51,14.87,0.30,-0.06,0.53,21.12,10.69,-20.75,-0.43,-3.64,5.35,-0.85,-0.88,9.52,0.91,-0.03,0.06,-0.42,12
1029115,-0.29,-0.41,9.66,0.17,0.35,0.42,22.38,12.12,-19.94,0.70,0.32,0.14,-0.99,-0.73,9.52,0.91,-0.02,0.06,-0.41,12
1029155,-1.21,-0.88,9.73,0.30,-0.23,0.15,21.31,10.94,-20.00,-0.30,-0.26,0.20,-0.91,-0.62,9.54,0.91,-0.01,0.06,-0.40,12
1029195,-0.98,-0.68,9.54,1.78,-0.03,-0.19,22.19,11.75,-18.12,-0.05,-0.52,-0.01,-0.93,-0.16,9.55,0.91,0.00,0.05,-0.40,12
1029235,-1.02,-2.18,13.03,4.98,-0.01,-0.23,23.88,8.31,-21.38,-0.04,-3.67,3.59,-0.98,1.49,9.44,0.91,0.07,0.02,-0.41,12
1029275,-1.55,2.50,7.78,3.39,-0.08,0.38,20.69,0.88,-23.88,-0.59,-0.41,-1.33,-0.97,2.91,9.11,0.90,0.15,-0.01,-0.41,12
1029315,-1.36,3.53,7.44,1.96,-0.61,0.36,21.38,-0.81,-24.12,-0.60,-0.25,-1.38,-0.77,3.78,8.81,0.89,0.19,-0.04,-0.40,12
1029355,-0.02,4.49,6.67,0.54,-0.18,-0.12,20.75,-3.81,-23.00,0.65,0.47,-2.05,-0.67,4.02,8.72,0.89,0.21,-0.05,-0.40,12
1029395,0.09,4.30,7.82,-0.21,0.23,-0.51,20.12,-4.12,-23.75,0.87,0.31,-0.91,-0.77,3.98,8.73,0.89,0.21,-0.05,-0.40,12
1029435,-1.52,4.03,9.50,-0.57,0.17,-0.29,20.38,-2.69,-23.06,-0.66,0.27,0.69,-0.86,3.77,8.81,0.89,0.20,-0.05,-0.41,12
1029475,-0.79,4.03,6.21,-2.66,0.45,-0.67,20.81,-2.06,-23.75,0.19,0.95,-2.85,-0.98,3.08,9.06,0.89,0.18,-0.03,-0.42,12
1029515,-1.48,3.27,8.97,-3.89,-0.06,-0.49,19.75,0.44,-21.50,-0.65,1.50,-0.45,-0.83,1.77,9.41,0.89,0.12,-0.01,-0.43,12
1029555,0.25,2.46,7.40,-4.94,-0.13,-0.48,21.31,6.38,-21.94,1.07,2.61,-2.18,-0.83,-0.15,9.58,0.90,0.03,0.03,-0.44,12
1029595,-1.55,-3.55,14.25,1.47,0.15,0.48,23.69,12.25,-19.75,-0.61,-2.94,4.71,-0.95,-0.62,9.55,0.90,-0.01,0.06,-0.44,12
1029635,-1.48,-0.22,9.50,0.60,-0.52,0.63,20.75,12.06,-21.19,-0.77,0.11,-0.07,-0.70,-0.34,9.58,0.90,-0.00,0.05,-0.43,12
1029675,0.21,-0.84,11.15,2.14,0.04,0.16,21.56,9.81,-20.25,0.82,-1.16,1.57,-0.62,0.32,9.59,0.90,0.02,0.03,-0.43,12
1029715,-1.52,-0.53,10.08,2.84,0.43,0.54,21.94,7.25,-21.19,-0.78,-1.89,0.58,-0.73,1.36,9.50,0.90,0.07,0.01,-0.43,12
1031501,-1.06,2.23,7.24,-4.81,-0.47,0.08,18.94,3.94,-18.50,0.14,1.12,-2.21,-1.20,1.11,9.45,0.90,0.08,0.03,-0.43,12
1031541,-1.09,-1.79,12.42,0.21,0.12,0.01,20.75,10.19,-17.12,-0.01,-2.29,2.90,-1.09,0.49,9.52,0.90,0.05,0.04,-0.42,12
1031582,0.05,-0.49,10.66,0.14,0.87,-0.08,20.62,10.56,-18.25,1.30,-1.04,1.16,-1.24,0.55,9.49,0.91,0.06,0.05,-0.42,12
1031622,-1.82,-0.14,9.58,0.08,-0.60,0.12,21.81,11.50,-19.94,-0.57,-0.74,0.09,-1.25,0.59,9.49,0.91,0.06,0.05,-0.42,12
1031662,-0.98,-0.26,10.27,1.15,0.09,-0.47,22.06,10.75,-20.62,0.12,-0.90,0.77,-1.10,0.64,9.51,0.91,0.06,0.04,-0.42,12
1031702,-1.48,-1.60,11.34,2.37,0.19,0.37,23.06,9.31,-18.62,-0.26,-3.12,1.95,-1.22,1.52,9.40,0.90,0.10,0.02,-0.42,12
1031742,-1.29,0.93,8.62,0.93,-0.05,-0.27,23.19,5.94,-20.94,-0.03,-1.20,-0.66,-1.26,2.12,9.28,0.90,0.13,0.01,-0.41,12
1031782,-0.75,1.92,8.97,-0.20,0.07,-0.57,22.12,4.94,-21.06,0.54,-0.38,-0.27,-1.29,2.30,9.23,0.89,0.14,0.01,-0.43,12
1031822,-1.98,1.43,11.00,-0.06,0.02,0.29,20.19,4.81,-22.00,-0.75,-0.79,1.73,-1.23,2.22,9.27,0.89,0.14,0.01,-0.43,12
1031862,-0.79,2.50,6.79,-4.76,0.06,-0.54,20.12,4.69,-19.81,0.34,1.16,-2.66,-1.13,1.34,9.45,0.90,0.09,0.02,-0.43,12
1031902,-0.64,1.85,6.36,0.41,0.09,-0.10,20.00,11.56,-17.62,0.40,1.85,-3.18,-1.04,0.00,9.55,0.90,0.03,0.05,-0.43,12
1031942,-0.41,-0.03,8.43,0.39,0.71,0.17,20.00,11.25,-17.62,0.66,-0.13,-1.11,-1.07,0.10,9.54,0.90,0.03,0.05,-0.43,12
1031982,-1.17,-0.38,9.62,0.26,-0.41,0.31,21.88,11.50,-19.56,-0.04,-0.62,0.09,-1.13,0.24,9.53,0.90,0.04,0.05,-0.42,12
1032022,-0.83,-0.45,9.86,0.75,-0.60,-0.35,21.75,12.56,-18.56,0.07,-0.83,0.30,-0.90,0.38,9.55,0.90,0.04,0.03,-0.42,12
1032063,-0.71,-0.84,10.54,1.21,-0.02,0.38,21.12,9.19,-19.94,0.12,-1.67,1.01,-0.84,0.84,9.53,0.90,0.06,0.02,-0.42,12
1032102,-0.56,0.66,8.86,0.64,0.09,0.16,21.06,8.56,-19.56,0.29,-0.49,-0.65,-0.84,1.15,9.51,0.90,0.08,0.01,-0.42,12
1032142,-0.71,0.62,9.43,0.43,0.11,0.15,20.69,7.75,-21.31,0.12,-0.72,-0.05,-0.84,1.34,9.48,0.90,0.09,0.01,-0.42,12
1032182,-0.45,0.66,9.70,1.47,0.82,0.12,23.44,7.56,-17.75,0.53,-0.98,0.29,-0.98,1.64,9.41,0.91,0.11,0.01,-0.41,12
1032223,-0.45,0.54,11.42,1.34,-0.09,0.07,25.94,6.88,-18.44,0.67,-1.75,2.15,-1.12,2.29,9.27,0.90,0.14,0.00,-0.41,12
1032262,-1.32,2.00,9.86,1.42,-0.44,0.15,24.50,4.69,-17.81,-0.36,-0.71,0.68,-0.96,2.71,9.17,0.90,0.16,-0.01,-0.41,12
1032302,-0.52,2.27,8.78,0.47,-0.35,-0.11,23.56,2.94,-19.31,0.30,-0.87,-0.28,-0.82,3.14,9.05,0.89,0.18,-0.03,-0.41,12
1032342,-0.45,3.19,9.09,0.12,-0.19,-0.10,24.81,2.75,-19.50,0.37,-0.04,0.06,-0.81,3.23,9.02,0.89,0.18,-0.03,-0.41,12
1032382,-0.75,2.80,8.51,-1.52,-0.03,-0.61,23.38,2.38,-20.06,0.11,-0.20,-0.59,-0.86,3.01,9.10,0.89,0.17,-0.03,-0.42,12
1032422,-1.09,2.11,9.96,-2.04,-0.09,0.09,25.88,4.88,-19.88,-0.29,-0.23,0.67,-0.80,2.34,9.30,0.90,0.14,-0.02,-0.42,12
1032462,-0.14,1.85,7.97,-3.68,-0.18,-0.55,24.75,7.12,-20.12,0.64,0.59,-1.54,-0.77,1.26,9.51,0.90,0.09,0.01,-0.43,12
1032503,-0.21,0.62,8.35,0.59,0.27,0.57,24.75,11.12,-18.06,0.45,0.57,-1.24,-0.66,0.05,9.59,0.90,0.03,0.03,-0.43,12
1032543,-0.21,-3.36,13.84,0.64,0.85,0.17,24.69,12.19,-16.75,0.62,-3.71,4.27,-0.84,0.35,9.57,0.90,0.04,0.03,-0.43,12
1032583,-1.40,-0.14,9.32,0.66,-0.17,0.15,26.56,13.19,-16.56,-0.36,-0.68,-0.23,-1.05,0.53,9.54,0.90,0.06,0.04,-0.43,12
1032624,-1.25,0.28,9.77,0.16,-0.11,0.06,27.44,11.62,-18.50,-0.34,-0.40,0.23,-0.91,0.68,9.55,0.90,0.06,0.03,-0.43,12
1032664,-0.75,0.16,9.62,0.62,-0.38,-0.07,27.88,10.81,-18.06,0.07,-0.66,0.07,-0.82,0.82,9.55,0.90,0.07,0.02,-0.43,12
1032704,-0.45,0.54,9.58,1.47,0.04,0.27,26.25,10.75,-19.38,0.28,-0.60,0.06,-0.73,1.14,9.52,0.90,0.08,0.01,-0.43,12
1032744,-0.98,0.70,10.54,1.47,0.17,0.38,26.62,8.50,-21.06,-0.29,-1.00,1.10,-0.70,1.70,9.44,0.90,0.10,-0.01,-0.42,12
1032784,-1.21,1.23,10.24,1.53,-0.05,0.30,26.62,5.62,-21.62,-0.49,-1.02,0.91,-0.72,2.26,9.33,0.90,0.13,-0.02,-0.41,12
1032824,-0.60,1.66,9.16,1.52,0.02,0.19,23.88,3.06,-22.56,0.06,-1.19,-0.00,-0.66,2.84,9.16,0.90,0.16,-0.03,-0.41,12
1032864,0.17,2.73,8.20,0.58,0.08,-0.21,24.38,1.62,-20.94,0.86,-0.49,-0.84,-0.70,3.22,9.05,0.89,0.18,-0.04,-0.41,12
1032904,-0.87,3.15,8.82,-0.17,-0.24,-0.34,23.94,1.88,-21.38,-0.10,-0.12,-0.21,-0.77,3.27,9.02,0.89,0.18,-0.04,-0.41,12
1032944,-1.52,2.54,10.50,0.48,-0.04,0.12,22.19,0.94,-23.38,-0.78,-0.80,1.50,-0.73,3.34,9.00,0.89,0.19,-0.04,-0.41,12
1032984,0.17,3.42,7.59,-0.98,-0.64,-0.23,23.25,0.44,-22.12,0.96,0.21,-1.45,-0.80,3.21,9.04,0.89,0.18,-0.04,-0.42,12
1033024,-0.98,3.27,9.50,-1.37,-0.10,0.12,22.88,2.06,-20.06,-0.23,0.41,0.35,-0.75,2.86,9.16,0.89,0.16,-0.03,-0.42,12
1033064,-0.41,2.54,7.63,-3.29,0.38,-0.19,22.81,2.38,-20.44,0.36,0.54,-1.75,-0.77,1.99,9.38,0.90,0.12,-0.01,-0.42,12
1033104,-0.52,1.66,6.94,-7.03,-0.17,0.09,25.19,8.25,-18.31,0.40,1.58,-2.64,-0.92,0.08,9.58,0.90,0.03,0.04,-0.43,12
1033144,-2.47,-5.09,14.91,-0.42,-0.80,0.81,25.81,13.44,-16.31,-1.60,-4.44,5.35,-0.88,-0.65,9.55,0.91,-0.00,0.05,-0.40,12
1033184,0.05,-0.26,9.50,0.02,0.12,0.44,26.06,13.38,-14.81,0.90,0.42,-0.05,-0.84,-0.68,9.55,0.92,-0.01,0.05,-0.39,12
1033224,-1.17,-1.10,9.74,0.80,-0.36,0.14,26.44,12.94,-17.31,-0.44,-0.61,0.15,-0.73,-0.49,9.59,0.92,-0.00,0.04,-0.38,12
1033264,0.59,-0.49,9.96,0.88,0.51,-0.89,24.75,12.00,-18.88,1.43,-0.27,0.38,-0.84,-0.22,9.59,0.92,0.02,0.04,-0.39,12
1033304,-0.90,-0.41,9.36,1.66,-0.36,0.20,26.75,11.62,-19.69,0.10,-0.59,-0.23,-1.00,0.17,9.58,0.92,0.04,0.04,-0.40,12
1033344,-1.32,-0.61,10.23,1.44,-0.45,-0.20,26.31,9.56,-18.19,-0.43,-1.36,0.68,-0.90,0.75,9.55,0.91,0.06,0.03,-0.40,12
1033384,-1.17,0.43,9.86,1.75,-0.21,0.00,26.12,8.94,-18.94,-0.38,-0.89,0.34,-0.79,1.32,9.51,0.91,0.09,0.01,-0.40,12
1033424,-1.09,1.00,9.20,1.41,-0.14,0.26,24.56,5.19,-22.56,-0.33,-0.96,-0.20,-0.77,1.96,9.40,0.91,0.12,-0.01,-0.40,12
1033464,-0.21,2.57,7.29,0.57,-0.27,-0.47,24.12,4.31,-21.88,0.43,0.36,-2.07,-0.64,2.21,9.36,0.91,0.13,-0.02,-0.41,12
1033504,-0.25,1.89,10.96,0.18,0.11,-0.23,22.00,3.12,-20.62,0.43,-0.55,1.66,-0.69,2.44,9.30,0.90,0.14,-0.02,-0.41,12
1033544,-0.14,2.77,8.62,-0.61,-0.20,-0.08,23.38,2.94,-20.44,0.47,0.38,-0.70,-0.61,2.38,9.32,0.90,0.13,-0.02,-0.41,12
1033584,-0.29,2.54,7.52,-2.66,0.07,-0.30,21.19,3.69,-20.75,0.30,0.73,-1.94,-0.59,1.80,9.45,0.90,0.11,-0.01,-0.42,12
1033625,-0.33,2.04,7.21,-4.65,-0.59,-0.08,22.94,7.00,-20.69,0.27,1.78,-2.41,-0.59,0.26,9.62,0.91,0.03,0.02,-0.42,12
1033665,-0.87,-0.57,9.12,1.00,0.55,0.27,24.44,13.62,-16.50,-0.38,-0.10,-0.50,-0.49,-0.47,9.62,0.91,-0.00,0.03,-0.42,12
1033705,-0.41,-0.22,9.20,0.26,0.62,0.10,24.62,12.75,-17.50,0.25,0.04,-0.41,-0.66,-0.27,9.61,0.91,0.01,0.04,-0.41,12
1033745,-1.32,-0.38,9.47,0.34,-0.69,0.02,25.25,12.31,-18.81,-0.68,-0.21,-0.14,-0.64,-0.16,9.61,0.91,0.01,0.03,-0.41,12
1033785,-0.41,-0.45,9.89,1.10,-0.23,-0.07,26.19,11.88,-20.50,0.07,-0.45,0.27,-0.48,-0.01,9.62,0.91,0.02,0.02,-0.41,12
1033825,-0.33,-1.33,11.96,3.54,-0.13,0.23,24.62,9.75,-20.62,0.19,-2.36,2.39,-0.52,1.02,9.57,0.91,0.07,0.00,-0.41,12
1033865,-0.10,2.69,7.28,0.49,-0.00,-0.30,22.75,5.56,-20.62,0.32,0.92,-2.18,-0.41,1.77,9.46,0.91,0.10,-0.02,-0.41,12
1033905,-0.64,1.66,8.13,-0.42,-0.26,-0.40,21.75,3.50,-22.12,-0.29,-0.13,-1.34,-0.34,1.79,9.46,0.90,0.10,-0.02,-0.41,12
1033945,-0.18,1.66,10.42,-0.37,-0.70,0.04,22.12,4.62,-21.00,0.17,0.04,0.93,-0.34,1.62,9.49,0.90,0.09,-0.02,-0.42,12
1033985,-0.21,1.54,9.93,-1.79,0.23,-0.52,22.62,5.75,-18.81,0.11,0.24,0.39,-0.32,1.30,9.54,0.90,0.08,-0.01,-0.42,12
1034025,-0.90,1.00,6.78,-4.75,-0.21,-0.28,22.81,8.44,-19.69,-0.51,1.04,-2.84,-0.39,-0.04,9.62,0.90,0.01,0.02,-0.43,12
1034065,0.09,-3.86,14.75,0.41,-0.03,-0.04,24.25,13.00,-17.19,0.49,-3.43,5.14,-0.40,-0.43,9.61,0.90,-0.00,0.03,-0.43,12
1034105,0.17,-0.07,9.01,0.35,0.62,-0.02,23.38,12.19,-19.06,0.68,0.18,-0.61,-0.52,-0.25,9.62,0.90,0.01,0.03,-0.43,12
1034145,-0.45,-0.34,9.74,0.29,-0.51,0.04,25.44,11.44,-19.19,0.12,-0.23,0.12,-0.56,-0.10,9.61,0.90,0.01,0.03,-0.43,12
1034186,-0.33,-0.41,9.89,0.48,-0.10,0.10,23.12,11.31,-19.81,0.13,-0.36,0.27,-0.46,-0.05,9.62,0.90,0.02,0.02,-0.43,12
1034225,-0.75,-0.84,11.00,1.88,0.18,0.39,23.81,11.19,-21.19,-0.26,-1.34,1.39,-0.49,0.51,9.61,0.91,0.04,0.01,-0.42,12
1034265,-0.45,0.70,8.77,1.14,-0.05,0.06,24.31,8.94,-22.12,0.09,-0.36,-0.79,-0.53,1.05,9.56,0.91,0.07,0.00,-0.42,12
1034305,-0.60,1.04,9.92,1.48,-0.16,-0.03,23.94,6.75,-19.81,-0.12,-0.51,0.43,-0.48,1.55,9.50,0.90,0.09,-0.01,-0.42,12
1034346,-0.41,2.00,7.48,0.29,0.00,0.10,21.94,4.38,-21.75,0.05,0.09,-1.97,-0.45,1.91,9.45,0.90,0.11,-0.02,-0.42,12
1034385,-0.18,2.27,10.80,0.12,0.02,-0.04,21.44,4.62,-22.25,0.23,0.39,1.36,-0.41,1.88,9.45,0.90,0.11,-0.02,-0.42,12
1034425,-0.45,1.73,9.09,-0.68,-0.50,0.04,21.44,4.62,-22.25,-0.08,-0.11,-0.38,-0.37,1.84,9.46,0.90,0.10,-0.02,-0.42,12
1034465,-0.21,2.04,9.54,-1.03,0.14,-0.15,21.94,4.88,-19.62,0.14,0.48,0.04,-0.36,1.55,9.51,0.90,0.09,-0.02,-0.42,12
1034508,-0.21,1.66,7.97,-2.43,-0.06,-0.28,22.88,6.12,-20.31,0.15,0.69,-1.62,-0.37,0.97,9.59,0.91,0.06,-0.01,-0.42,12
1034545,-0.52,0.85,7.97,-4.41,-0.31,0.21,24.12,10.25,-18.50,-0.18,1.31,-1.65,-0.34,-0.46,9.62,0.91,-0.01,0.03,-0.42,12
1034585,-0.25,-3.86,14.75,0.19,-0.18,0.37,24.12,10.25,-18.50,0.13,-3.16,5.15,-0.38,-0.70,9.60,0.91,-0.02,0.03,-0.41,12
1034625,0.02,-0.30,9.09,0.20,0.39,0.08,22.56,12.88,-16.69,0.52,0.28,-0.52,-0.51,-0.58,9.61,0.91,-0.01,0.03,-0.41,12
1034668,-0.94,-0.61,9.77,0.05,-0.45,-0.04,24.50,12.25,-17.81,-0.50,-0.09,0.16,-0.45,-0.52,9.62,0.91,-0.01,0.03,-0.41,12
1034706,0.09,-0.72,9.66,0.89,0.36,0.23,24.38,12.25,-18.62,0.48,-0.31,0.04,-0.38,-0.41,9.62,0.91,-0.00,0.03,-0.41,12
1034746,-0.60,-1.33,11.53,2.55,0.16,0.16,24.38,12.25,-18.62,-0.12,-1.75,1.91,-0.48,0.42,9.62,0.91,0.04,0.01,-0.40,12
1034786,-0.29,0.66,8.89,0.48,0.05,-0.11,23.00,7.62,-20.69,0.23,-0.38,-0.68,-0.52,1.04,9.58,0.91,0.07,0.00,-0.40,12
1034830,-0.67,1.23,8.09,-1.18,-0.18,-0.05,23.81,6.81,-20.56,-0.19,0.38,-1.51,-0.48,0.85,9.60,0.91,0.06,0.00,-0.41,12
1034866,-0.25,0.70,9.82,-2.11,-0.27,-0.49,24.38,8.50,-18.38,0.23,0.58,0.18,-0.48,0.12,9.63,0.91,0.02,0.02,-0.41,12
1034907,-0.52,-1.07,12.23,-0.19,-0.25,-0.08,23.25,11.31,-19.00,-0.14,-0.83,2.59,-0.38,-0.23,9.63,0.91,0.00,0.02,-0.41,12
1034946,-0.18,-0.14,9.23,-1.34,0.23,-0.26,22.69,12.25,-15.56,0.20,0.35,-0.38,-0.38,-0.49,9.62,0.91,-0.01,0.03,-0.41,12
1034990,-0.94,-1.18,10.46,-0.36,-0.01,0.24,24.62,14.75,-16.12,-0.50,-0.45,0.86,-0.45,-0.73,9.60,0.91,-0.02,0.04,-0.41,12
1035027,-0.25,-0.68,9.39,-0.73,0.07,0.50,25.19,13.56,-14.56,0.17,0.29,-0.20,-0.42,-0.97,9.59,0.91,-0.03,0.04,-0.40,12
1035067,-0.06,-1.07,9.39,-0.16,0.05,0.16,24.19,13.50,-15.00,0.39,0.04,-0.18,-0.45,-1.11,9.57,0.92,-0.04,0.04,-0.40,12
1035107,-0.48,-1.10,9.62,-0.12,0.01,0.06,23.69,14.12,-15.88,0.00,0.06,0.06,-0.48,-1.16,9.56,0.92,-0.04,0.05,-0.39,12
1035150,-0.37,-1.41,9.70,0.13,0.23,-0.02,25.31,13.38,-16.38,0.18,-0.24,0.14,-0.55,-1.17,9.56,0.92,-0.04,0.05,-0.39,12
1035187,-0.52,-1.18,9.70,0.71,-0.00,-0.22,25.69,14.38,-17.81,0.08,-0.19,0.12,-0.60,-0.99,9.58,0.92,-0.03,0.05,-0.40,12
1035227,-1.90,-1.71,10.85,2.15,-0.18,0.12,24.81,13.19,-19.31,-1.38,-1.30,1.22,-0.52,-0.41,9.62,0.92,-0.01,0.03,-0.39,12
1035267,-0.37,-0.64,9.89,2.17,0.12,0.29,25.00,10.31,-18.75,0.11,-1.04,0.26,-0.48,0.39,9.63,0.92,0.03,0.01,-0.39,12
1035307,-0.48,0.20,9.54,1.73,-0.01,0.28,25.31,7.19,-19.62,0.01,-0.98,-0.03,-0.49,1.18,9.57,0.92,0.07,-0.00,-0.39,12
1035347,-0.45,2.19,7.71,0.10,-0.03,0.31,22.69,5.88,-21.00,0.00,0.68,-1.82,-0.45,1.51,9.53,0.92,0.09,-0.01,-0.38,12
1035387,0.63,1.66,8.85,0.41,-0.10,-0.32,23.44,5.25,-19.12,1.08,0.07,-0.66,-0.45,1.59,9.52,0.92,0.09,-0.01,-0.38,12
1035427,-0.02,1.73,10.23,-0.13,0.22,-0.41,20.81,3.94,-20.44,0.47,0.10,0.73,-0.49,1.63,9.50,0.92,0.09,-0.01,-0.39,12
1035467,-0.79,1.62,9.81,-0.21,-0.08,-0.08,23.00,5.50,-19.19,-0.27,0.12,0.30,-0.52,1.49,9.52,0.92,0.09,-0.01,-0.39,12
1035507,-0.64,1.39,9.39,0.07,-0.03,-0.03,20.75,6.19,-19.81,-0.12,-0.14,-0.13,-0.52,1.52,9.52,0.92,0.09,-0.01,-0.39,12
1035547,0.63,1.81,9.47,0.01,0.45,-0.61,21.81,5.19,-20.38,1.31,0.30,-0.05,-0.68,1.51,9.52,0.91,0.09,0.00,-0.40,12
1035587,-1.25,1.39,10.46,0.04,0.02,0.13,21.94,5.38,-17.44,-0.50,-0.18,0.96,-0.75,1.56,9.50,0.91,0.09,0.00,-0.40,12
1035627,-1.36,1.62,8.51,-1.37,-0.16,0.02,23.38,5.44,-16.88,-0.63,0.27,-1.02,-0.73,1.35,9.53,0.91,0.08,0.01,-0.40,12
1035667,-0.48,1.77,7.24,-4.27,-0.09,-0.23,22.06,8.50,-16.50,0.18,1.49,-2.38,-0.66,0.28,9.62,0.91,0.03,0.02,-0.40,12
1035708,-0.14,-0.49,8.89,-0.28,-0.14,0.46,23.94,13.56,-16.56,0.47,0.70,-0.66,-0.61,-1.19,9.55,0.91,-0.04,0.05,-0.40,12
1035748,-0.75,-3.55,14.02,0.10,0.26,0.13,24.44,13.00,-16.06,-0.16,-2.47,4.46,-0.59,-1.09,9.57,0.91,-0.04,0.05,-0.40,12
1035788,-0.29,-0.68,8.93,0.00,-0.09,-0.04,23.88,13.88,-17.31,0.41,0.40,-0.63,-0.70,-1.09,9.56,0.91,-0.03,0.05,-0.40,12
1035828,-0.75,-1.18,9.70,0.42,-0.15,0.04,25.88,14.56,-16.69,-0.12,-0.15,0.12,-0.62,-1.03,9.58,0.91,-0.03,0.05,-0.40,12
1035868,-0.56,-1.33,10.12,1.82,0.15,0.23,24.81,14.00,-17.19,0.07,-0.68,0.51,-0.62,-0.65,9.61,0.91,-0.02,0.04,-0.40,12
1035908,-0.79,-1.18,10.66,2.38,0.01,0.31,23.75,11.94,-19.38,-0.13,-1.41,1.03,-0.66,0.23,9.62,0.92,0.03,0.03,-0.40,12
1035948,-0.64,0.24,9.24,1.63,-0.03,0.32,24.81,9.50,-19.50,-0.00,-0.80,-0.33,-0.63,1.04,9.57,0.92,0.06,0.01,-0.39,12
1035988,-0.45,1.85,8.24,0.27,-0.20,-0.07,23.88,6.19,-19.75,0.13,0.44,-1.28,-0.58,1.41,9.52,0.92,0.08,-0.00,-0.39,12
1036028,-0.25,1.73,8.74,-0.68,-0.02,-0.27,22.31,6.06,-20.69,0.33,0.42,-0.80,-0.59,1.31,9.54,0.92,0.08,0.00,-0.39,12
1036068,-0.64,1.31,9.89,-1.28,0.23,-0.36,22.12,6.94,-19.69,0.04,0.31,0.32,-0.68,1.00,9.57,0.91,0.06,0.01,-0.40,12
1036108,-0.41,1.43,8.01,-1.44,0.05,-0.31,23.12,8.38,-17.44,0.27,1.11,-1.61,-0.68,0.32,9.62,0.91,0.03,0.02,-0.41,12
1036148,-1.06,-0.14,9.77,-0.53,-0.25,0.14,23.06,10.06,-16.50,-0.42,-0.19,0.16,-0.64,0.05,9.62,0.91,0.02,0.03,-0.40,12
1036188,-0.33,0.31,9.01,-1.58,-0.03,0.00,23.00,11.19,-17.62,0.30,0.65,-0.61,-0.62,-0.34,9.62,0.91,-0.00,0.04,-0.40,12
1036228,-0.71,0.01,8.67,-1.64,-0.10,0.30,24.75,13.56,-14.62,-0.12,1.20,-0.88,-0.59,-1.19,9.55,0.91,-0.04,0.05,-0.40,12
1036268,-0.90,-2.60,12.19,-0.12,-0.30,0.13,25.62,15.62,-13.50,-0.36,-1.31,2.65,-0.54,-1.29,9.54,0.91,-0.05,0.05,-0.40,12
1036308,-0.25,-1.22,9.66,-0.00,0.20,-0.05,26.31,15.44,-14.88,0.36,0.09,0.13,-0.61,-1.31,9.53,0.91,-0.05,0.06,-0.40,12
1036348,-0.90,-1.33,9.70,0.09,0.05,-0.01,24.62,15.06,-16.56,-0.27,-0.05,0.17,-0.63,-1.28,9.53,0.91,-0.05,0.06,-0.40,12
1036388,-0.56,-1.41,9.73,0.34,-0.20,0.12,24.38,14.25,-17.25,0.04,-0.20,0.19,-0.60,-1.21,9.55,0.91,-0.04,0.05,-0.40,12
1036428,-0.64,-1.52,10.27,1.60,0.03,0.42,24.81,13.69,-16.75,-0.07,-0.65,0.69,-0.57,-0.88,9.59,0.92,-0.03,0.04,-0.40,12
1036468,-0.83,-0.45,9.20,1.39,0.02,0.35,23.69,13.31,-18.00,-0.26,-0.22,-0.43,-0.57,-0.23,9.63,0.92,0.00,0.03,-0.39,12
1036508,-0.37,0.28,9.09,1.14,-0.06,0.22,25.25,11.25,-20.25,0.19,0.07,-0.55,-0.55,0.21,9.63,0.92,0.02,0.02,-0.38,12
1036548,-0.29,0.20,9.92,1.41,0.14,0.15,23.69,9.44,-20.38,0.26,-0.54,0.32,-0.55,0.73,9.61,0.92,0.05,0.01,-0.38,12
1036588,-0.18,0.70,9.35,1.40,-0.12,-0.07,24.44,7.12,-19.75,0.40,-0.58,-0.20,-0.58,1.28,9.55,0.92,0.07,0.00,-0.38,12
1036628,-0.56,1.73,9.12,1.01,-0.06,0.02,24.06,4.44,-20.06,-0.06,-0.04,-0.35,-0.50,1.77,9.47,0.92,0.10,-0.01,-0.38,12
1036668,-0.45,2.08,8.89,0.54,0.14,-0.08,22.44,3.81,-21.00,0.09,0.02,-0.51,-0.53,2.06,9.41,0.92,0.11,-0.02,-0.38,12
1036708,-0.33,2.23,9.01,0.15,-0.21,-0.21,23.12,2.69,-21.50,0.25,0.05,-0.38,-0.58,2.18,9.38,0.92,0.12,-0.02,-0.38,12
1036749,-0.87,2.50,9.70,-0.30,-0.16,-0.07,21.56,3.12,-20.31,-0.34,0.32,0.32,-0.52,2.17,9.38,0.91,0.12,-0.02,-0.39,12
1036789,-0.18,2.08,9.24,-0.57,0.62,-0.37,21.75,3.38,-19.56,0.45,0.09,-0.18,-0.62,1.99,9.42,0.91,0.11,-0.01,-0.39,12
1036829,-0.87,1.96,9.16,-0.37,-0.61,-0.14,22.69,4.94,-20.62,-0.07,0.22,-0.30,-0.80,1.74,9.46,0.91,0.10,0.00,-0.40,12
1036869,-1.06,1.43,10.54,-0.53,0.01,0.06,20.88,4.19,-20.44,-0.29,-0.29,1.08,-0.77,1.71,9.46,0.91,0.10,0.00,-0.39,12
1036909,-0.45,1.96,8.51,-0.83,-0.06,-0.07,22.50,4.56,-18.44,0.32,0.51,-1.00,-0.77,1.45,9.51,0.91,0.09,0.01,-0.39,12
1036949,-0.87,1.00,9.82,-0.42,-0.07,0.02,24.06,6.44,-18.69,-0.14,-0.16,0.27,-0.73,1.16,9.55,0.92,0.07,0.01,-0.39,12
1036989,-0.71,0.93,9.92,-0.29,0.01,0.04,23.62,7.62,-19.56,0.01,-0.14,0.36,-0.72,1.07,9.56,0.92,0.07,0.01,-0.39,12
1037029,-0.71,1.12,9.24,-0.41,-0.11,0.09,22.94,7.00,-20.31,-0.02,0.21,-0.34,-0.70,0.91,9.58,0.92,0.06,0.01,-0.39,12
1037069,-0.87,0.73,9.85,0.35,-0.04,0.28,25.44,7.31,-16.38,-0.19,-0.17,0.27,-0.68,0.91,9.58,0.92,0.06,0.01,-0.39,12
1037109,-0.48,1.20,8.93,-0.33,-0.04,0.14,23.38,7.25,-18.12,0.18,0.27,-0.66,-0.66,0.93,9.59,0.92,0.06,0.01,-0.38,12
1037149,-0.67,1.04,9.12,-0.77,-0.15,0.21,24.25,9.12,-19.88,-0.06,0.36,-0.48,-0.61,0.68,9.60,0.92,0.05,0.01,-0.38,12
1037189,-0.75,0.50,10.12,-0.47,-0.03,0.21,24.94,9.12,-18.38,-0.19,0.04,0.50,-0.56,0.46,9.62,0.92,0.03,0.02,-0.38,12
1037229,-0.60,0.47,9.50,-1.22,0.06,-0.17,25.31,9.94,-16.50,-0.04,0.30,-0.13,-0.56,0.16,9.63,0.93,0.02,0.02,-0.38,12
1037269,-0.37,0.12,8.93,-2.24,0.32,-0.49,24.38,12.12,-15.69,0.26,0.64,-0.68,-0.62,-0.52,9.61,0.92,-0.01,0.04,-0.38,12
1037309,-0.83,-0.91,9.09,-2.90,0.41,-0.22,25.50,14.88,-16.44,-0.06,0.62,-0.40,-0.77,-1.53,9.48,0.92,-0.06,0.07,-0.39,12
1037349,-1.13,-2.37,10.28,0.43,-0.17,0.09,28.00,16.62,-13.25,-0.34,-0.28,0.90,-0.80,-2.09,9.38,0.92,-0.08,0.08,-0.39,12
1037390,-0.90,-2.67,10.43,-0.16,0.20,0.07,27.69,17.50,-12.94,-0.16,-0.58,1.04,-0.74,-2.09,9.38,0.92,-0.09,0.08,-0.38,12
1037429,-0.87,-2.29,9.85,-0.06,0.04,0.06,26.38,16.81,-12.75,-0.10,-0.17,0.48,-0.77,-2.12,9.38,0.92,-0.09,0.08,-0.38,12
1037469,-0.71,-2.25,9.39,-0.02,0.05,0.04,27.44,16.62,-14.06,0.10,-0.12,0.02,-0.81,-2.13,9.37,0.92,-0.09,0.08,-0.38,12
1037510,-0.83,-2.14,9.47,0.01,0.05,0.01,29.44,17.38,-13.50,0.00,-0.01,0.10,-0.83,-2.12,9.37,0.92,-0.09,0.08,-0.38,12
1037550,-0.90,-2.14,9.47,0.02,0.00,0.00,27.75,17.81,-12.94,-0.07,-0.03,0.10,-0.83,-2.11,9.37,0.92,-0.09,0.08,-0.38,12
1037589,-0.87,-2.14,9.32,0.03,-0.00,0.00,26.88,17.44,-12.69,-0.04,-0.03,-0.05,-0.83,-2.11,9.37,0.92,-0.09,0.08,-0.38,12
1037630,-0.83,-2.06,9.47,0.04,0.03,-0.01,25.56,16.81,-14.69,0.00,0.03,0.09,-0.83,-2.09,9.38,0.92,-0.08,0.08,-0.38,12
1037670,-0.87,-2.14,9.47,0.05,-0.01,-0.01,26.94,17.25,-14.50,-0.03,-0.05,0.09,-0.84,-2.09,9.38,0.92,-0.08,0.08,-0.38,12
1037710,-0.87,-2.21,9.47,0.06,-0.03,-0.01,26.81,16.19,-12.31,-0.03,-0.15,0.09,-0.84,-2.06,9.38,0.92,-0.08,0.08,-0.38,12
1037750,-0.67,-2.02,9.36,0.05,0.05,0.09,26.81,17.44,-13.06,0.16,0.02,-0.03,-0.83,-2.05,9.38,0.92,-0.08,0.08,-0.38,12
1037791,-0.75,-1.98,9.43,0.24,0.13,0.06,26.94,16.62,-14.12,0.16,0.00,0.04,-0.91,-1.98,9.39,0.92,-0.08,0.08,-0.38,12
1037831,-1.48,-2.18,9.92,0.57,-0.93,0.35,25.75,16.50,-13.56,-0.70,-0.35,0.48,-0.77,-1.83,9.45,0.92,-0.07,0.07,-0.38,12
1037871,-0.71,-1.79,9.58,0.47,-0.50,0.10,25.19,15.88,-13.56,-0.24,-0.15,0.08,-0.47,-1.64,9.50,0.92,-0.07,0.05,-0.37,12
1037911,-0.45,-1.37,9.28,0.26,0.18,-0.01,25.12,15.00,-13.12,-0.02,0.12,-0.25,-0.42,-1.49,9.52,0.93,-0.06,0.05,-0.37,12
1037951,-0.33,-1.56,9.73,0.38,-0.20,0.00,24.81,14.44,-14.62,0.11,-0.18,0.20,-0.44,-1.38,9.54,0.93,-0.06,0.05,-0.37,12
1037991,-0.41,-1.45,9.85,0.68,0.40,0.20,24.75,15.06,-15.75,0.09,-0.24,0.30,-0.49,-1.21,9.55,0.93,-0.05,0.05,-0.37,12
1038031,-0.41,-1.48,10.00,1.27,0.35,0.02,26.69,13.94,-13.62,0.26,-0.66,0.42,-0.66,-0.82,9.59,0.93,-0.03,0.05,-0.37,12
1038071,-0.98,-0.30,9.50,0.65,-0.05,0.19,26.69,13.50,-16.19,-0.27,0.15,-0.11,-0.71,-0.45,9.62,0.93,-0.01,0.04,-0.37,12
1038111,-0.60,-0.14,8.81,0.03,0.03,0.39,24.56,12.81,-17.88,0.15,0.09,-0.81,-0.75,-0.23,9.62,0.93,0.00,0.04,-0.36,12
1038151,-0.45,-0.22,10.66,0.21,-0.14,0.03,28.00,13.31,-16.38,0.27,-0.03,1.03,-0.72,-0.20,9.62,0.93,0.00,0.04,-0.36,12
1038191,-0.60,-0.03,8.97,-0.11,0.16,-0.03,26.44,11.69,-16.12,0.13,0.17,-0.66,-0.73,-0.20,9.62,0.93,0.00,0.04,-0.36,12
1038233,-0.87,-0.30,9.66,-0.11,-0.04,-0.02,26.25,11.94,-14.69,-0.12,-0.06,0.04,-0.75,-0.23,9.62,0.93,0.00,0.04,-0.36,12
1038271,-0.64,-0.11,9.32,-0.45,0.07,0.02,25.25,12.19,-15.94,0.11,0.22,-0.31,-0.75,-0.33,9.62,0.93,-0.00,0.04,-0.36,12
1038311,-1.29,-0.26,9.35,-0.62,-0.07,0.60,26.19,12.81,-15.81,-0.51,0.31,-0.26,-0.77,-0.57,9.61,0.93,-0.01,0.05,-0.35,12
1038351,-0.98,-0.88,10.08,-0.12,-0.12,0.79,26.12,13.38,-14.44,-0.25,-0.20,0.48,-0.73,-0.68,9.60,0.94,-0.02,0.05,-0.34,12
1038393,-0.41,-0.61,9.50,-0.00,-0.04,0.52,27.81,12.88,-14.56,0.33,0.08,-0.10,-0.73,-0.69,9.60,0.94,-0.02,0.05,-0.33,12
1038431,-0.56,-0.72,9.93,0.29,-0.07,0.30,28.06,12.38,-15.25,0.17,-0.10,0.32,-0.73,-0.62,9.61,0.95,-0.02,0.05,-0.32,12
1038471,-0.60,-0.57,9.47,0.02,0.13,0.04,28.06,12.38,-15.25,0.14,-0.02,-0.15,-0.73,-0.55,9.62,0.95,-0.01,0.04,-0.32,12
1038511,-0.56,-0.45,9.39,-0.22,0.04,-0.17,28.88,12.06,-12.94,0.21,0.12,-0.22,-0.77,-0.58,9.61,0.95,-0.02,0.05,-0.32,12
1038553,-0.75,-0.61,9.54,-0.69,0.35,-0.30,30.25,13.94,-13.94,0.09,0.15,-0.05,-0.84,-0.76,9.59,0.95,-0.02,0.05,-0.32,12
1038591,-0.90,-0.80,9.16,-1.38,0.37,-0.43,32.44,15.31,-14.81,0.07,0.37,-0.38,-0.97,-1.16,9.54,0.94,-0.04,0.07,-0.33,12
1038631,-1.17,-1.33,9.05,-1.14,0.33,0.08,32.44,15.31,-14.81,-0.05,0.42,-0.38,-1.12,-1.75,9.43,0.94,-0.07,0.09,-0.33,12
1038671,-1.48,-2.33,10.69,0.25,0.10,0.03,35.44,18.25,-14.94,-0.34,-0.51,1.28,-1.14,-1.82,9.41,0.94,-0.07,0.09,-0.33,12
1038713,-1.32,-1.60,8.59,0.33,0.10,0.11,36.06,16.88,-15.88,-0.10,0.16,-0.83,-1.23,-1.76,9.41,0.94,-0.07,0.09,-0.33,12
1038751,-0.90,-1.07,8.43,1.03,-0.82,-0.46,33.56,15.50,-16.50,0.21,0.40,-1.04,-1.11,-1.47,9.48,0.94,-0.05,0.08,-0.33,12
1040519,-0.79,-1.03,9.20,0.11,-0.12,-0.03,30.94,14.81,-18.62,-0.16,-0.08,-0.38,-0.62,-0.95,9.58,0.94,-0.03,0.05,-0.34,12
1040559,-0.60,-0.91,9.78,0.04,0.18,-0.03,31.44,13.88,-17.06,-0.00,0.00,0.20,-0.59,-0.91,9.58,0.94,-0.03,0.04,-0.34,12
1040599,-0.29,-1.03,9.93,0.04,0.20,0.00,31.88,14.88,-18.12,0.38,-0.14,0.35,-0.67,-0.89,9.58,0.94,-0.03,0.05,-0.34,12
1040639,-0.83,-0.91,9.54,0.05,0.07,0.03,33.38,14.38,-16.81,-0.02,-0.11,0.05,-0.73,-0.88,9.57,0.94,-0.03,0.05,-0.34,12
1040679,-0.75,-0.99,9.89,0.16,0.07,0.01,31.31,13.94,-17.81,0.00,-0.13,0.31,-0.75,-0.86,9.58,0.94,-0.03,0.05,-0.34,12
1040719,-0.79,-0.95,9.58,0.10,0.06,-0.21,31.94,14.25,-17.00,-0.02,-0.14,-0.00,-0.77,-0.80,9.59,0.94,-0.02,0.05,-0.34,12
1040759,-0.87,-0.72,9.39,0.05,0.01,-0.04,32.75,14.31,-17.62,-0.09,0.05,-0.20,-0.77,-0.77,9.59,0.94,-0.02,0.05,-0.35,12
1040799,-0.90,-0.84,9.39,0.05,0.00,0.02,32.44,14.56,-16.94,-0.06,-0.03,-0.08,-0.77,-0.77,9.59,0.94,-0.02,0.05,-0.35,12
1040839,-0.87,-0.88,9.93,0.24,0.01,0.11,32.25,14.31,-18.06,-0.09,-0.16,0.33,-0.77,-0.72,9.59,0.94,-0.02,0.05,-0.34,12
1040879,-0.48,-0.72,9.62,0.49,0.14,-0.05,31.25,13.06,-17.75,0.32,-0.09,0.03,-0.80,-0.62,9.59,0.94,-0.01,0.05,-0.34,12
1040919,-0.87,-0.80,10.08,0.33,-0.04,-0.03,31.25,13.94,-18.19,-0.03,-0.36,0.48,-0.84,-0.44,9.60,0.94,-0.00,0.05,-0.35,12
1040959,-0.64,-0.30,9.62,0.21,0.13,-0.23,31.94,11.69,-17.94,-0.10,0.10,-0.55,-0.84,-0.36,9.60,0.94,0.00,0.05,-0.35,12
1041000,-1.02,-0.45,9.70,0.11,-0.05,-0.12,31.94,12.25,-18.38,-0.14,-0.18,0.09,-0.88,-0.27,9.61,0.93,0.01,0.05,-0.35,12
1041040,-0.98,-0.26,9.50,0.07,0.00,-0.06,32.19,13.50,-20.62,-0.11,-0.03,-0.11,-0.87,-0.23,9.61,0.93,0.01,0.05,-0.35,12
1041081,-0.83,-0.34,9.86,0.35,0.08,-0.11,32.75,12.38,-19.00,0.04,-0.16,0.23,-0.87,-0.17,9.62,0.93,0.01,0.04,-0.36,12
1041120,-1.02,-0.11,9.39,0.29,0.05,-0.03,31.12,12.50,-18.12,0.11,-0.21,0.20,-0.90,-0.05,9.62,0.93,0.02,0.04,-0.36,12
1041160,-0.83,-0.26,10.16,1.23,0.26,-0.02,30.81,11.38,-18.81,0.09,-0.38,0.55,-0.92,0.12,9.61,0.93,0.03,0.04,-0.36,12
1041200,-0.90,0.01,10.27,0.80,0.20,-0.52,32.62,10.94,-18.56,0.10,-0.60,0.69,-1.00,0.61,9.59,0.93,0.05,0.04,-0.36,12
1041240,-0.83,0.93,8.89,0.49,0.13,-0.28,31.81,8.81,-19.31,0.27,0.06,-0.66,-1.10,0.87,9.55,0.93,0.07,0.04,-0.37,12
1041280,-1.29,1.00,9.50,0.34,0.02,-0.18,31.31,8.81,-19.75,0.11,-0.18,-0.52,-1.16,1.03,9.53,0.92,0.08,0.03,-0.38,12
1041320,-1.02,1.12,9.28,0.10,0.09,-0.35,32.94,8.69,-20.25,0.18,0.01,-0.24,-1.20,1.11,9.52,0.92,0.08,0.04,-0.38,12
1041360,-1.52,1.23,9.12,-0.42,-0.13,0.07,31.94,7.75,-20.31,-0.29,0.14,-0.40,-1.23,1.09,9.52,0.92,0.08,0.04,-0.38,12
1041403,-1.32,0.93,9.12,-0.91,-0.04,-0.01,30.25,8.44,-20.25,-0.31,0.34,-0.42,-1.20,0.89,9.54,0.92,0.07,0.04,-0.38,12
1041440,-1.44,0.85,8.24,-2.00,-0.34,0.23,31.56,9.69,-18.62,-0.18,0.49,-0.46,-1.15,0.44,9.58,0.92,0.04,0.05,-0.38,12
1041480,-0.94,-0.84,11.95,-0.21,-0.55,0.16,32.56,11.25,-19.38,0.08,-0.93,2.36,-1.02,0.09,9.60,0.93,0.03,0.04,-0.38,12
1041520,-0.64,0.12,9.43,-0.22,0.15,0.03,32.31,11.75,-18.69,0.29,0.08,-0.19,-0.93,0.04,9.62,0.93,0.02,0.04,-0.37,12
1041561,-0.98,-0.07,9.58,-0.04,-0.10,0.01,31.25,11.44,-19.12,-0.04,-0.05,-0.03,-0.94,-0.02,9.61,0.93,0.02,0.04,-0.37,12
1041601,-0.79,0.24,10.00,-0.28,-0.03,0.15,30.94,11.38,-18.06,-0.04,0.16,-0.15,-0.91,-0.07,9.62,0.93,0.01,0.04,-0.37,12
1041641,-1.06,-0.41,9.62,-0.06,-0.13,0.08,29.56,12.75,-19.81,-0.17,-0.27,0.00,-0.89,-0.15,9.62,0.93,0.01,0.04,-0.37,12
1041681,-0.90,-0.22,9.50,-0.10,0.04,-0.02,31.00,12.19,-18.50,-0.04,-0.05,-0.11,-0.86,-0.17,9.62,0.93,0.01,0.04,-0.37,12
1041721,-0.94,-0.03,9.62,0.02,-0.14,-0.00,31.31,12.56,-19.56,-0.10,0.16,0.00,-0.84,-0.20,9.62,0.93,0.01,0.04,-0.37,12
1041761,-0.75,-0.34,9.62,0.05,0.07,0.01,31.00,11.38,-17.69,0.04,-0.03,-0.04,-0.83,-0.20,9.62,0.93,0.01,0.04,-0.37,12
1041801,-0.94,-0.14,9.66,0.14,0.06,-0.07,31.38,11.94,-18.81,-0.09,0.03,0.04,-0.85,-0.17,9.62,0.93,0.01,0.04,-0.37,12
1041841,-0.33,-0.22,10.00,0.58,0.91,-0.40,30.75,11.69,-19.62,0.62,-0.14,0.39,-0.95,-0.08,9.61,0.93,0.02,0.05,-0.37,12
1041881,-1.13,-0.14,9.27,1.12,-0.28,-0.36,31.94,10.62,-19.75,0.05,-0.31,-0.30,-1.18,0.16,9.58,0.92,0.04,0.05,-0.38,12
1041921,-1.44,0.43,9.62,1.15,-0.23,0.37,32.44,10.81,-17.19,-0.91,-0.70,0.97,-1.10,0.67,9.57,0.92,0.06,0.04,-0.38,12
1041961,-0.60,1.46,8.31,0.19,0.05,0.00,32.75,8.62,-19.19,0.46,0.47,-1.23,-1.05,0.99,9.55,0.92,0.07,0.03,-0.38,12
1042001,-1.13,0.96,9.58,0.13,-0.03,0.12,30.62,8.25,-20.50,-0.07,-0.09,0.04,-1.06,1.05,9.54,0.92,0.07,0.03,-0.38,12
1042041,-1.13,1.08,9.47,-0.30,-0.03,0.01,30.75,7.94,-19.38,-0.09,0.00,-0.07,-1.05,1.08,9.54,0.92,0.07,0.03,-0.38,12
1042082,-1.13,0.89,9.47,-0.46,-0.05,0.08,30.44,7.56,-18.31,0.05,0.34,-0.47,-1.03,0.94,9.55,0.92,0.06,0.03,-0.38,12
1042122,-0.90,0.81,9.58,-0.65,-0.01,-0.03,30.12,9.31,-19.12,0.11,0.06,0.00,-1.01,0.75,9.58,0.92,0.05,0.03,-0.37,12
1042162,-0.94,0.77,9.12,-1.84,0.11,-0.34,30.69,9.94,-18.75,0.07,0.36,-0.47,-1.01,0.41,9.59,0.92,0.03,0.04,-0.38,12
1042202,-0.64,0.77,8.09,0.39,-0.23,0.03,31.31,10.19,-17.94,0.43,1.03,-1.50,-1.07,-0.26,9.59,0.92,0.01,0.06,-0.38,12
1042242,-0.48,0.05,9.27,0.01,0.11,0.03,32.06,12.88,-18.00,-0.95,-1.52,2.85,-0.95,-0.20,9.61,0.93,0.01,0.05,-0.38,12
1042282,-1.02,-0.26,9.50,0.16,-0.04,-0.03,31.12,10.81,-19.50,-0.04,-0.07,-0.10,-0.98,-0.20,9.60,0.92,0.01,0.05,-0.38,12
1042322,-1.02,-0.14,9.66,0.06,0.17,-0.01,30.31,12.06,-17.50,-0.02,0.01,0.06,-1.00,-0.16,9.60,0.92,0.01,0.05,-0.38,12
1042362,-0.94,-0.14,9.81,0.25,0.10,-0.01,30.88,11.88,-18.88,0.12,-0.04,0.21,-1.06,-0.11,9.60,0.92,0.02,0.05,-0.38,12
1042402,-1.21,0.01,9.66,0.35,0.06,0.03,32.38,11.50,-17.88,-0.10,-0.18,-0.05,-1.11,-0.01,9.59,0.92,0.02,0.05,-0.38,12
1042442,-1.09,0.24,9.50,0.15,0.00,0.06,30.69,11.44,-19.56,0.02,0.12,-0.09,-1.11,0.12,9.59,0.92,0.03,0.05,-0.38,12
1042482,-1.09,0.12,9.89,0.29,-0.05,0.07,33.12,9.75,-17.69,0.02,-0.06,0.30,-1.11,0.18,9.59,0.92,0.03,0.05,-0.38,12
1042522,-1.29,0.28,9.23,-0.09,0.01,0.02,33.12,9.75,-17.69,-0.20,0.03,-0.36,-1.09,0.25,9.59,0.93,0.03,0.05,-0.38,12
1042562,-1.17,0.20,9.70,-0.16,0.00,-0.01,32.56,10.31,-18.56,0.22,0.35,-0.20,-1.09,0.20,9.59,0.93,0.03,0.05,-0.38,12
1042602,-1.21,0.01,9.70,-0.08,-0.06,0.02,31.12,11.12,-19.50,-0.12,-0.14,0.11,-1.09,0.15,9.59,0.93,0.03,0.05,-0.38,12
1042642,-1.06,0.43,9.35,-0.42,-0.09,0.03,31.12,11.12,-19.88,0.00,0.34,-0.24,-1.06,0.09,9.59,0.93,0.02,0.05,-0.37,12
1042682,-1.21,0.39,9.16,-1.10,-0.29,0.11,31.12,11.12,-19.88,-0.20,0.55,-0.44,-1.01,-0.16,9.60,0.93,0.01,0.05,-0.37,12
1042722,-0.83,-0.68,10.16,-0.17,-0.31,0.07,31.69,12.81,-17.69,-0.18,0.13,0.10,-0.88,-0.39,9.60,0.93,-0.00,0.05,-0.37,12
1042762,-0.67,-0.30,9.47,-0.14,0.04,0.09,29.62,13.00,-19.44,0.12,0.14,-0.14,-0.79,-0.44,9.61,0.93,-0.01,0.05,-0.37,12
1042802,-0.83,-0.38,9.93,-0.20,-0.20,0.18,30.69,13.31,-18.94,-0.08,0.12,0.32,-0.75,-0.49,9.61,0.93,-0.01,0.04,-0.36,12
1042842,-0.87,-0.72,9.32,0.14,0.12,0.01,30.62,13.62,-19.38,-0.14,-0.18,-0.30,-0.73,-0.54,9.61,0.93,-0.01,0.04,-0.36,12
1042882,-1.29,-0.68,10.00,0.57,0.16,0.62,30.62,13.06,-18.94,0.44,-0.11,0.06,-0.84,-0.45,9.60,0.93,-0.00,0.05,-0.36,12
1042922,-0.75,-0.45,10.00,0.91,-0.10,-0.10,31.19,12.75,-17.75,0.15,-0.32,0.39,-0.90,-0.13,9.61,0.93,0.02,0.04,-0.35,12
1042962,-0.71,0.31,8.93,0.37,0.18,-0.23,31.56,10.88,-19.44,0.19,0.15,-0.68,-0.90,0.16,9.61,0.93,0.03,0.04,-0.36,12
1043002,-1.06,0.39,9.81,0.28,-0.08,-0.08,31.69,11.50,-19.50,-0.14,0.12,0.20,-0.91,0.27,9.61,0.93,0.03,0.04,-0.36,12
1043042,-0.83,0.54,9.16,-0.29,-0.07,-0.00,31.62,10.56,-19.00,-0.11,-0.01,-0.33,-0.91,0.29,9.61,0.93,0.03,0.04,-0.36,12
1043083,-0.94,0.09,9.96,-0.21,-0.13,0.03,30.06,11.00,-18.19,-0.05,-0.15,0.36,-0.89,0.23,9.61,0.93,0.03,0.04,-0.36,12
1043123,-0.90,0.47,9.12,-0.80,-0.07,0.07,30.19,11.38,-20.31,-0.04,0.37,-0.50,-0.86,0.10,9.62,0.93,0.02,0.04,-0.36,12
1043163,-0.94,0.39,8.97,-2.04,-0.11,0.02,30.88,12.19,-19.19,-0.13,0.72,-0.64,-0.81,-0.33,9.61,0.93,-0.01,0.05,-0.36,12
1043204,-0.83,-1.22,10.54,-0.19,-0.33,0.05,30.12,14.44,-17.62,0.03,0.33,-0.05,-0.74,-0.70,9.59,0.93,-0.02,0.05,-0.36,12
1043243,-0.45,-0.68,9.50,-0.18,0.10,-0.00,30.62,15.31,-18.00,0.25,0.07,-0.10,-0.70,-0.75,9.60,0.93,-0.02,0.05,-0.35,12
1043283,-0.87,-0.80,9.58,-0.11,-0.03,0.01,31.75,14.62,-18.56,-0.19,0.01,-0.01,-0.68,-0.80,9.59,0.93,-0.03,0.05,-0.35,12
1043323,-0.64,-0.76,9.66,-0.04,-0.01,-0.00,31.94,15.44,-18.19,0.04,0.09,0.07,-0.67,-0.84,9.59,0.93,-0.03,0.05,-0.35,12
1043364,-0.67,-0.88,9.54,-0.07,-0.03,0.02,32.12,15.06,-16.69,-0.04,-0.02,0.11,-0.67,-0.85,9.59,0.93,-0.03,0.05,-0.35,12
1043403,-0.64,-0.88,9.66,-0.04,-0.00,0.00,29.69,14.38,-17.31,-0.01,0.00,-0.05,-0.66,-0.88,9.59,0.93,-0.03,0.05,-0.35,12
1043443,-0.64,-0.91,9.74,-0.04,-0.03,0.00,30.44,14.50,-18.69,0.02,-0.02,0.15,-0.66,-0.89,9.59,0.93,-0.03,0.05,-0.35,12
1043483,-0.75,-0.91,9.58,-0.06,-0.04,-0.01,31.44,14.50,-17.50,-0.10,0.00,-0.00,-0.65,-0.91,9.59,0.93,-0.03,0.05,-0.35,12
1043525,-0.52,-0.91,9.86,-0.05,-0.05,-0.00,29.75,15.25,-17.75,-0.12,0.06,-0.12,-0.62,-0.94,9.59,0.93,-0.03,0.05,-0.35,12
1043563,-0.67,-1.03,9.66,-0.10,0.04,-0.01,31.75,13.69,-17.75,0.09,0.05,0.27,-0.61,-0.96,9.59,0.93,-0.04,0.05,-0.35,12
1043604,-0.67,-1.03,9.35,-0.05,-0.00,-0.04,30.62,15.00,-17.62,-0.05,-0.04,-0.23,-0.62,-0.99,9.59,0.93,-0.04,0.05,-0.35,12
1043644,-0.52,-0.88,9.73,0.01,0.09,-0.04,31.25,14.56,-18.56,0.16,0.00,0.10,-0.68,-0.88,9.63,0.93,-0.04,0.05,-0.35,12
1043684,-0.45,-0.99,9.70,0.02,0.31,-0.01,31.44,14.50,-17.50,0.23,-0.21,0.18,-0.71,-0.86,9.63,0.93,-0.03,0.05,-0.35,12
1043723,-0.64,-0.91,9.35,0.17,0.21,0.03,32.38,14.62,-17.38,0.38,-0.15,0.07,-0.83,-0.84,9.62,0.93,-0.03,0.06,-0.35,12
1043763,-0.87,-0.95,9.85,0.49,-0.00,-0.41,31.62,14.00,-18.88,-0.01,-0.21,0.22,-0.86,-0.74,9.63,0.93,-0.02,0.05,-0.36,12
1043803,-0.94,-1.22,10.12,0.71,-0.33,-0.00,31.69,14.94,-19.25,-0.11,-0.73,0.47,-0.83,-0.49,9.65,0.93,-0.01,0.05,-0.36,12
1043845,-0.02,-0.22,9.92,0.60,-0.20,-0.35,30.06,11.81,-18.62,-0.17,-0.25,-0.56,-0.70,-0.24,9.68,0.93,-0.00,0.04,-0.36,12
1043883,-0.79,-0.26,9.62,0.65,-0.15,-0.19,30.00,12.44,-19.75,0.59,-0.21,0.24,-0.62,-0.01,9.69,0.93,0.01,0.03,-0.37,12
1043923,-0.37,0.16,9.54,0.50,-0.09,-0.52,28.81,11.31,-20.56,0.17,-0.04,-0.14,-0.54,0.20,9.68,0.93,0.02,0.02,-0.38,12
1043963,-0.52,-0.11,10.04,0.47,-0.05,-0.23,28.88,10.81,-22.31,-0.02,-0.51,0.36,-0.50,0.41,9.68,0.92,0.03,0.01,-0.38,12
1044006,-0.83,0.43,9.28,0.29,0.04,-0.01,28.31,10.31,-19.81,-0.29,-0.09,-0.44,-0.50,0.56,9.68,0.92,0.03,0.01,-0.39,12
1044044,-0.71,0.54,9.39,0.19,-0.18,0.10,30.19,9.62,-19.19,-0.34,-0.22,-0.39,-0.48,0.65,9.67,0.92,0.04,0.01,-0.38,12
1044084,-0.18,0.58,9.89,0.10,0.02,-0.01,27.00,9.19,-21.75,0.25,-0.13,0.22,-0.43,0.71,9.67,0.92,0.04,0.01,-0.38,12
1044125,-0.37,0.54,9.50,0.14,-0.04,0.04,27.62,9.75,-21.00,0.07,-0.21,-0.17,-0.44,0.75,9.67,0.92,0.04,0.01,-0.38,12
1044166,-0.25,0.73,9.50,0.05,-0.05,0.01,28.31,8.94,-21.56,-0.07,-0.21,0.04,-0.41,0.79,9.66,0.92,0.04,0.00,-0.38,12
1044204,-0.37,0.66,9.47,0.01,-0.04,0.03,28.12,8.56,-19.75,0.14,-0.07,-0.16,-0.40,0.80,9.66,0.92,0.04,0.00,-0.38,12
1044245,-0.33,0.54,9.86,0.24,-0.04,0.02,27.50,9.50,-21.31,0.05,-0.29,0.19,-0.38,0.83,9.66,0.92,0.05,0.00,-0.38,12
1044285,-0.25,0.66,9.92,0.09,-0.03,0.02,26.88,8.88,-22.44,0.11,-0.25,0.27,-0.37,0.91,9.66,0.92,0.05,-0.00,-0.38,12
1044325,-0.37,0.89,9.09,0.03,0.01,0.09,26.06,9.06,-21.88,-0.01,-0.03,-0.57,-0.36,0.92,9.66,0.92,0.05,-0.00,-0.38,12
1044364,-0.21,0.66,10.00,0.30,0.03,0.05,27.62,8.81,-20.19,-0.02,-0.23,-0.02,-0.35,0.96,9.64,0.92,0.05,-0.00,-0.38,12
1044405,-0.33,0.89,9.35,0.06,0.06,0.07,26.75,8.88,-23.19,0.04,-0.16,-0.28,-0.37,1.05,9.63,0.92,0.06,-0.00,-0.38,12
1044445,-0.41,0.93,9.20,0.11,0.08,0.07,27.25,7.75,-21.69,-0.02,-0.15,-0.43,-0.38,1.08,9.63,0.92,0.06,-0.00,-0.38,12
1044485,-0.21,0.96,9.92,-0.08,0.03,0.02,28.19,8.12,-21.94,0.18,-0.14,0.30,-0.40,1.11,9.62,0.92,0.06,-0.00,-0.38,12
1044525,-0.45,0.81,10.00,0.06,-0.06,0.03,28.50,9.25,-20.81,0.08,-0.03,-0.27,-0.41,1.07,9.62,0.92,0.06,-0.00,-0.38,12
1044565,-0.33,0.89,9.50,0.07,0.02,0.04,27.62,8.62,-22.75,0.06,-0.20,-0.12,-0.39,1.09,9.62,0.92,0.06,-0.00,-0.38,12
1044605,-0.29,1.08,9.62,0.01,-0.01,0.03,26.44,7.94,-21.75,0.10,-0.04,-0.00,-0.39,1.12,9.62,0.92,0.06,-0.00,-0.38,12
1044645,-0.45,0.96,9.54,-0.12,-0.01,-0.02,27.62,8.06,-22.31,-0.07,-0.14,-0.08,-0.38,1.11,9.62,0.92,0.06,-0.00,-0.38,12
1044685,-0.33,0.93,9.78,0.07,0.02,0.01,28.81,8.69,-21.12,0.12,-0.11,-0.12,-0.38,1.07,9.62,0.92,0.06,-0.00,-0.38,12
1044725,-0.25,1.00,9.62,0.00,0.05,-0.06,26.81,8.00,-22.06,0.14,-0.07,-0.00,-0.39,1.08,9.62,0.92,0.06,-0.00,-0.38,12
1044765,-0.45,0.85,9.54,0.01,0.06,-0.06,27.12,7.44,-22.38,-0.03,-0.23,-0.08,-0.41,1.08,9.62,0.92,0.06,-0.00,-0.38,12
1044805,-0.29,0.96,9.66,0.16,0.13,-0.15,27.44,8.88,-21.31,0.15,-0.12,0.04,-0.44,1.09,9.62,0.92,0.06,-0.00,-0.38,12
1044845,-0.52,1.00,9.62,0.13,0.05,-0.10,27.44,8.00,-20.94,0.16,-0.21,0.05,-0.48,1.14,9.61,0.92,0.07,0.00,-0.38,12
1044885,-0.60,0.93,9.96,0.20,0.01,-0.03,27.94,6.94,-22.25,-0.11,-0.28,0.36,-0.49,1.20,9.60,0.92,0.07,-0.00,-0.38,12
1044925,-0.29,1.16,9.47,0.17,-0.01,-0.11,27.19,7.44,-22.00,0.20,-0.11,-0.12,-0.49,1.27,9.59,0.92,0.07,-0.00,-0.38,12
1044965,-0.52,1.27,9.28,-0.21,0.24,-0.14,26.19,7.06,-22.44,-0.01,-0.02,-0.32,-0.51,1.30,9.59,0.92,0.07,-0.00,-0.39,12
1045005,-0.29,1.08,9.36,-0.33,0.05,-0.21,27.00,8.00,-20.94,-0.19,0.24,-0.06,-0.52,1.23,9.60,0.92,0.07,0.00,-0.39,12
1045045,-0.52,1.46,8.77,-1.75,-0.24,0.10,29.44,8.69,-20.38,-0.01,0.46,-0.85,-0.51,1.00,9.62,0.92,0.05,0.01,-0.39,12
1045085,0.17,0.96,8.55,-0.97,0.28,-0.75,27.50,10.56,-19.94,0.64,0.61,-1.12,-0.47,0.35,9.66,0.92,0.02,0.02,-0.40,12
1045125,-0.45,-0.49,10.85,0.50,0.10,0.19,27.75,12.00,-19.56,0.14,-0.64,1.18,-0.59,0.15,9.66,0.92,0.02,0.02,-0.40,12
1045166,-0.56,0.43,9.20,0.07,0.07,-0.05,26.38,11.31,-19.06,-0.83,-0.81,1.50,-0.61,0.32,9.66,0.92,0.03,0.02,-0.40,12
1045206,-0.37,0.62,8.82,-0.35,-0.04,-0.16,26.38,11.31,-19.06,0.25,0.31,-0.84,-0.62,0.31,9.66,0.92,0.03,0.02,-0.40,12
1045246,-0.37,0.31,9.36,-0.14,-0.04,0.07,27.25,11.62,-19.69,0.26,0.15,-0.30,-0.62,0.16,9.66,0.92,0.02,0.03,-0.40,12
1045286,-1.02,-0.03,10.04,-0.14,-0.21,0.06,27.56,11.44,-20.31,-0.46,-0.13,0.38,-0.56,0.10,9.66,0.92,0.02,0.02,-0.40,12
1045326,-0.48,0.01,9.78,-0.10,-0.00,0.05,26.62,12.12,-18.31,0.11,0.07,-0.20,-0.52,0.05,9.66,0.92,0.01,0.02,-0.40,12
1045366,-0.45,0.05,9.73,-0.11,-0.06,0.04,26.88,11.31,-19.00,0.05,0.03,0.07,-0.50,0.02,9.66,0.92,0.01,0.02,-0.40,12
1045406,-0.56,0.01,9.54,-0.06,-0.05,0.03,27.75,12.56,-20.00,-0.07,0.03,-0.12,-0.48,-0.02,9.66,0.92,0.01,0.02,-0.40,12
1045446,-0.56,-0.03,9.54,-0.04,-0.03,0.00,25.81,12.44,-20.62,-0.10,0.01,-0.12,-0.46,-0.04,9.66,0.92,0.01,0.02,-0.40,12
1045486,-0.45,-0.22,9.73,-0.03,0.01,0.02,27.56,12.50,-18.19,0.16,0.02,0.26,-0.45,-0.05,9.66,0.92,0.01,0.02,-0.40,12
1045526,-0.52,-0.11,9.35,-0.02,-0.04,0.03,24.56,12.06,-20.06,-0.07,-0.04,-0.32,-0.45,-0.06,9.67,0.92,0.01,0.02,-0.40,12
1045566,-0.52,0.12,9.66,-0.01,-0.09,0.01,26.38,11.88,-19.44,-0.07,0.20,-0.01,-0.45,-0.08,9.67,0.92,0.01,0.02,-0.40,12
1045606,-0.45,-0.11,9.86,-0.00,0.16,-0.04,26.38,12.19,-19.75,-0.04,-0.02,0.18,-0.41,-0.09,9.67,0.92,0.01,0.02,-0.40,12
1045646,-0.41,-0.18,9.73,0.17,0.46,-0.24,26.12,12.38,-18.75,0.39,-0.19,0.15,-0.48,-0.07,9.66,0.92,0.01,0.03,-0.40,12
1045686,-1.29,-0.45,11.34,1.99,0.24,0.60,26.31,12.19,-20.19,-0.54,-0.52,1.70,-0.74,0.07,9.65,0.92,0.03,0.03,-0.40,12
1045726,-2.02,-0.95,12.11,2.38,0.17,0.54,27.31,10.31,-21.06,-1.18,-1.93,2.52,-0.84,0.98,9.59,0.92,0.08,0.02,-0.39,12
1045766,-1.21,1.23,8.12,0.80,0.08,0.54,27.81,6.81,-20.44,-0.29,-0.46,-1.36,-0.92,1.70,9.48,0.92,0.11,0.01,-0.38,12
1045806,-0.06,2.27,8.86,0.45,0.03,0.24,27.12,5.31,-20.81,0.08,-0.02,-1.88,-0.91,2.02,9.43,0.92,0.12,0.00,-0.37,12
1045846,-0.25,2.42,9.05,-0.17,0.36,0.16,27.31,3.94,-21.06,0.70,0.31,-0.36,-0.95,2.11,9.41,0.92,0.12,0.01,-0.37,12
1045886,-1.17,1.96,9.39,0.02,-0.05,0.26,27.00,3.88,-20.44,-0.13,-0.11,-0.02,-1.04,2.07,9.41,0.92,0.12,0.01,-0.36,12
1045926,-1.36,2.15,9.54,0.42,-0.16,0.07,26.44,2.69,-20.44,-0.37,0.05,0.14,-0.99,2.10,9.41,0.92,0.12,0.01,-0.36,12
1045966,-1.13,1.96,9.20,0.54,-0.02,0.33,24.44,2.69,-18.81,0.15,-0.33,0.60,-0.94,2.29,9.37,0.92,0.13,0.00,-0.36,12
1046006,-0.90,2.50,8.70,0.52,-0.16,0.26,26.31,1.44,-20.38,-0.02,0.02,-0.62,-0.88,2.48,9.33,0.93,0.14,-0.01,-0.35,12
1046046,-0.48,2.77,8.97,0.37,-0.11,0.09,25.81,1.44,-20.44,0.32,0.11,-0.31,-0.80,2.66,9.28,0.93,0.15,-0.01,-0.35,12
1046086,-0.64,2.73,9.23,0.36,0.08,-0.01,25.38,1.38,-20.50,0.14,-0.06,-0.00,-0.77,2.79,9.24,0.92,0.15,-0.01,-0.35,12
1046126,-0.41,3.15,9.01,0.05,0.07,-0.24,23.81,-0.19,-20.62,0.41,0.03,-0.23,-0.81,2.89,9.20,0.92,0.16,-0.01,-0.35,12
1046166,-1.29,2.73,9.85,0.33,0.03,0.04,23.81,-0.19,-20.62,-0.45,-0.17,0.66,-0.84,2.90,9.20,0.92,0.16,-0.01,-0.35,12
1046207,-1.29,2.92,8.97,0.08,-0.05,0.01,24.19,0.44,-21.25,-0.45,-0.08,-0.20,-0.84,3.00,9.16,0.92,0.16,-0.02,-0.35,12
1046247,-0.71,3.27,8.77,-0.08,0.05,0.00,24.50,-0.06,-21.94,0.11,0.27,-0.39,-0.82,3.00,9.17,0.92,0.16,-0.02,-0.35,12
1046287,-0.79,3.11,8.97,-0.28,0.13,-0.01,26.31,0.88,-19.94,0.28,-0.07,-0.40,-0.84,2.95,9.18,0.92,0.16,-0.01,-0.35,12
1046327,-0.98,2.92,8.97,-0.40,0.04,-0.09,26.50,0.62,-21.00,-0.10,0.07,-0.24,-0.88,2.84,9.21,0.92,0.16,-0.01,-0.35,12
1046368,-0.71,2.77,9.16,-0.48,0.18,-0.33,26.50,0.62,-21.00,0.22,0.06,-0.09,-0.93,2.70,9.25,0.92,0.15,-0.00,-0.36,12
1046407,-0.83,2.88,9.05,-1.05,0.25,-0.81,27.19,1.50,-20.25,0.25,0.42,-0.25,-1.08,2.46,9.30,0.92,0.14,0.01,-0.36,12
1046447,-1.36,1.92,9.93,-0.60,0.29,-0.38,26.88,2.38,-19.94,-0.13,0.46,0.73,-1.23,2.15,9.35,0.92,0.13,0.02,-0.37,12
1046488,-0.94,2.08,8.97,-0.38,0.54,-0.47,26.56,3.19,-20.00,0.49,0.20,-0.41,-1.43,1.88,9.38,0.92,0.12,0.03,-0.38,12
1046528,-1.29,2.04,9.74,-0.23,0.61,-0.47,27.56,3.88,-19.62,0.35,0.28,0.37,-1.63,1.76,9.37,0.91,0.12,0.05,-0.39,12
1046568,-1.36,1.58,10.00,-0.10,0.72,-0.37,27.56,3.88,-19.62,0.56,-0.11,0.68,-1.92,1.69,9.32,0.91,0.12,0.06,-0.39,12
1046607,-2.40,1.46,8.70,-0.36,0.67,-0.49,30.06,4.88,-18.56,0.44,0.16,-0.55,-2.23,1.57,9.29,0.91,0.12,0.08,-0.40,12
1046648,-3.28,1.43,8.63,-0.49,0.25,-0.26,30.62,5.19,-18.19,-0.82,0.03,-0.62,-2.46,1.40,9.25,0.90,0.12,0.09,-0.40,12
1046688,-2.97,1.08,8.86,-0.47,0.11,-0.16,31.50,6.38,-16.69,-0.42,-0.11,-0.39,-2.55,1.20,9.25,0.90,0.11,0.10,-0.40,12
1046728,-2.70,1.04,8.78,-0.63,-0.07,-0.11,31.50,6.38,-16.69,-0.12,0.04,-0.49,-2.59,1.00,9.27,0.90,0.10,0.10,-0.41,12
1046767,-2.40,0.81,9.50,-0.91,-0.04,-0.23,32.50,7.00,-16.56,-0.07,0.43,-0.14,-2.56,0.73,9.30,0.90,0.09,0.11,-0.41,12
1046808,-2.55,0.54,8.55,-1.95,-0.25,0.04,31.88,9.31,-16.44,-0.00,0.24,-0.77,-2.55,0.30,9.32,0.90,0.06,0.12,-0.41,12
1046848,-2.70,0.47,8.09,-4.10,-0.46,0.07,31.69,10.12,-15.38,-0.26,1.05,-1.24,-2.45,-0.58,9.33,0.91,0.01,0.13,-0.40,12
1046888,-3.09,-0.68,8.09,-2.43,-0.58,0.04,32.12,13.75,-12.94,-0.88,1.34,-1.10,-2.20,-2.02,9.19,0.91,-0.07,0.15,-0.39,12
1046928,-1.90,-3.29,10.38,0.04,0.01,0.47,32.81,16.62,-10.81,0.04,-1.11,1.88,-2.05,-2.68,9.05,0.91,-0.09,0.16,-0.38,12
1046968,-2.02,-2.33,9.01,-0.26,0.04,0.54,32.69,17.19,-9.81,0.10,0.38,-0.02,-2.12,-2.71,9.02,0.91,-0.09,0.16,-0.37,12
1047008,-2.17,-2.87,8.93,-0.20,-0.37,0.73,32.25,17.44,-9.88,-0.04,-0.12,-0.07,-2.13,-2.75,9.00,0.91,-0.09,0.16,-0.36,12
1047048,-2.32,-2.87,8.93,-0.22,-0.30,0.46,32.56,16.56,-10.12,-0.23,-0.12,-0.09,-2.09,-2.75,9.02,0.92,-0.10,0.15,-0.35,12
1047088,-1.67,-2.75,9.20,-0.25,0.03,0.32,33.31,16.88,-8.25,0.17,0.15,0.09,-2.07,-2.82,9.00,0.92,-0.10,0.15,-0.34,12
1047128,-2.05,-3.06,9.09,-0.00,0.12,0.34,35.25,17.44,-10.56,0.07,-0.21,0.11,-2.12,-2.85,8.98,0.92,-0.10,0.16,-0.33,12
1047168,-2.51,-2.90,8.89,0.13,-0.26,0.35,34.31,16.75,-10.25,-0.34,-0.11,-0.08,-2.17,-2.80,8.98,0.93,-0.10,0.16,-0.33,12
1047208,-2.44,-2.75,8.81,0.49,-0.43,0.46,33.31,16.12,-10.38,-0.34,-0.06,-0.21,-2.10,-2.69,9.03,0.93,-0.10,0.15,-0.32,12
1047249,-1.90,-2.48,9.09,1.26,-0.58,0.34,33.19,16.44,-11.12,-0.38,-0.30,-0.27,-1.98,-2.41,9.12,0.94,-0.08,0.14,-0.31,12
1047289,-1.40,-1.79,8.71,2.22,-0.97,-0.17,32.38,15.88,-13.06,0.36,-0.00,-0.61,-1.76,-1.79,9.31,0.94,-0.05,0.11,-0.31,12
1047329,0.25,-0.80,9.78,0.07,-0.42,-0.71,32.25,13.88,-14.75,1.76,0.45,0.33,-1.52,-1.25,9.45,0.94,-0.04,0.10,-0.33,12
1047369,-0.75,-1.10,9.50,2.34,-0.16,-0.99,31.62,13.56,-15.56,0.67,-0.05,0.02,-1.42,-1.05,9.48,0.93,-0.02,0.08,-0.35,12
1047410,-1.94,-0.53,9.43,2.31,0.30,-0.94,30.25,12.88,-15.69,-0.16,-2.48,2.45,-1.39,-0.16,9.55,0.93,0.03,0.07,-0.37,12
1047449,-2.82,0.39,8.55,1.84,-0.79,-0.17,30.44,9.56,-17.69,-0.50,-1.17,-0.09,-1.44,0.64,9.52,0.92,0.07,0.05,-0.38,12
