timestamp,accel_x,accel_y,accel_z,gyro_x,gyro_y,gyro_z,mag_x,mag_y,mag_z,linacc_x,linacc_y,linacc_z,grav_x,grav_y,grav_z,gamerot_w,gamerot_x,gamerot_y,gamerot_z,label
1372343,-3.85,-3.59,8.14,-0.11,-0.06,0.02,32.75,2.31,-22.06,-0.23,-0.20,-0.13,-3.62,-3.38,8.27,0.57,-0.26,-0.03,0.78,12
1372383,-3.66,-3.86,8.30,0.03,0.01,-0.06,33.69,3.06,-22.38,-0.05,-0.46,0.02,-3.61,-3.39,8.27,0.57,-0.26,-0.03,0.78,12
1372423,-3.54,-3.28,8.30,0.07,-0.05,-0.13,32.81,2.31,-21.69,0.04,0.11,0.01,-3.58,-3.39,8.29,0.57,-0.26,-0.03,0.78,12
1372463,-3.47,-3.51,8.26,-0.01,-0.08,-0.03,32.88,2.94,-21.75,0.08,0.19,0.15,-3.55,-3.39,8.30,0.57,-0.26,-0.03,0.78,12
1372503,-3.32,-3.66,8.04,0.05,0.01,0.09,33.12,2.69,-22.81,0.24,-0.29,-0.27,-3.55,-3.38,8.30,0.57,-0.26,-0.03,0.78,12
1372543,-3.62,-3.43,8.26,0.12,0.13,0.06,33.50,1.81,-22.69,-0.02,-0.11,-0.04,-3.60,-3.33,8.30,0.57,-0.26,-0.03,0.78,12
1372583,-3.93,-3.09,8.41,0.03,-0.09,0.02,34.12,2.75,-22.25,-0.32,0.22,0.10,-3.60,-3.31,8.31,0.57,-0.26,-0.03,0.78,12
1372624,-3.35,-3.55,8.46,-0.11,-0.03,0.11,34.75,2.12,-20.38,0.16,0.25,-0.09,-3.59,-3.34,8.31,0.57,-0.26,-0.03,0.78,12
1372664,-3.66,-3.32,8.22,-0.02,0.11,0.03,34.38,3.31,-21.19,-0.04,0.02,-0.07,-3.62,-3.34,8.29,0.57,-0.26,-0.03,0.78,12
1372704,-3.77,-3.24,8.34,-0.04,-0.06,-0.03,35.62,3.44,-21.75,-0.16,0.11,0.05,-3.62,-3.35,8.29,0.57,-0.26,-0.03,0.78,12
1372744,-3.62,-3.28,8.38,-0.10,-0.06,-0.04,33.25,2.38,-22.00,-0.03,0.09,0.09,-3.59,-3.38,8.29,0.57,-0.26,-0.03,0.78,12
1372784,-3.39,-3.70,8.22,-0.08,-0.13,-0.02,32.44,2.56,-21.38,-0.19,-0.05,-0.22,-3.55,-3.42,8.29,0.57,-0.26,-0.03,0.78,12
1372824,-3.51,-3.51,8.42,0.01,-0.01,-0.03,36.12,2.56,-20.94,0.02,-0.08,0.12,-3.52,-3.43,8.30,0.57,-0.26,-0.04,0.78,12
1372864,-3.35,-3.39,8.41,-0.01,-0.09,0.02,34.94,1.94,-21.75,0.16,0.03,0.11,-3.52,-3.42,8.30,0.57,-0.26,-0.04,0.78,12
1372904,-3.28,-3.55,8.34,0.01,0.09,0.03,32.94,4.44,-22.56,0.25,-0.13,0.04,-3.53,-3.41,8.30,0.57,-0.26,-0.04,0.78,12
1372944,-3.54,-3.39,8.30,0.02,-0.07,-0.03,34.31,2.75,-21.12,-0.24,0.01,-0.16,-3.53,-3.41,8.30,0.57,-0.26,-0.03,0.78,12
1372984,-3.35,-3.43,8.41,0.00,-0.04,0.00,34.81,3.38,-21.12,0.16,-0.03,0.10,-3.51,-3.41,8.31,0.57,-0.26,-0.04,0.78,12
1373024,-3.51,-3.36,8.38,0.00,0.04,0.01,31.50,2.25,-21.88,0.01,0.05,0.06,-3.52,-3.41,8.31,0.57,-0.26,-0.04,0.78,12
1373064,-3.47,-3.43,8.26,-0.01,-0.05,-0.01,33.31,3.31,-22.06,0.04,-0.03,-0.05,-3.51,-3.41,8.31,0.57,-0.26,-0.04,0.78,12
1373104,-3.62,-3.39,8.30,0.00,0.04,-0.02,33.50,2.94,-20.94,0.04,0.01,-0.02,-3.51,-3.41,8.31,0.57,-0.26,-0.04,0.78,12
1373144,-3.28,-3.24,8.41,-0.14,-0.13,0.01,34.50,3.00,-20.44,0.20,0.20,0.10,-3.48,-3.44,8.31,0.57,-0.26,-0.04,0.78,12
1373184,-3.32,-3.43,8.38,-0.10,-0.04,0.02,33.25,3.56,-22.81,0.15,0.04,0.07,-3.47,-3.47,8.30,0.57,-0.26,-0.04,0.78,12
1373224,-3.77,-3.47,8.07,-0.11,-0.06,-0.05,33.88,3.31,-21.62,-0.32,0.04,-0.22,-3.45,-3.51,8.29,0.57,-0.26,-0.04,0.78,12
1373265,-3.12,-3.55,8.64,-0.11,-0.23,-0.12,32.62,4.06,-21.44,-0.48,-0.14,-0.12,-3.38,-3.56,8.30,0.57,-0.26,-0.05,0.78,12
1373304,-3.24,-3.51,8.34,-0.14,-0.12,-0.13,32.25,4.94,-21.50,0.07,0.11,0.03,-3.31,-3.62,8.30,0.57,-0.26,-0.05,0.78,12
1373345,-3.81,-3.43,8.45,-0.35,-0.13,-0.29,33.06,4.38,-21.81,-0.57,0.31,0.18,-3.24,-3.74,8.27,0.57,-0.26,-0.06,0.78,12
1373384,-4.04,-3.70,8.18,-0.44,-0.63,-0.36,32.00,5.00,-23.06,-1.01,0.23,-0.08,-3.03,-3.93,8.27,0.57,-0.26,-0.07,0.77,12
1373425,-1.63,-4.35,8.80,-0.42,-0.91,-0.37,29.19,4.94,-21.56,-0.58,-0.18,-0.15,-2.70,-4.10,8.30,0.58,-0.25,-0.09,0.77,12
1373464,-2.09,-5.16,9.22,-0.51,-0.12,-0.35,29.69,6.19,-21.94,0.44,-0.84,0.98,-2.53,-4.31,8.24,0.58,-0.25,-0.10,0.77,12
1373505,-2.70,-4.62,8.38,0.15,-0.22,-0.10,29.88,6.56,-23.75,-0.25,-0.29,0.11,-2.45,-4.33,8.27,0.58,-0.25,-0.11,0.77,12
1373545,-2.09,-4.35,8.72,-0.44,-0.52,-0.17,28.31,6.12,-22.50,0.19,0.06,0.45,-2.28,-4.41,8.27,0.58,-0.24,-0.11,0.77,12
1373585,-1.52,-6.04,10.29,0.24,-0.44,-0.09,24.19,4.56,-21.81,0.34,-2.34,2.64,-2.09,-4.46,8.30,0.58,-0.24,-0.12,0.77,12
1373625,-2.66,-5.08,10.14,0.51,-0.26,-0.23,25.00,3.62,-18.75,0.45,-1.73,1.87,-1.97,-4.30,8.42,0.58,-0.23,-0.12,0.77,12
1373665,-2.66,-5.16,10.18,0.62,-0.62,0.22,23.38,1.12,-18.81,-0.85,-1.06,1.60,-1.81,-4.09,8.58,0.59,-0.21,-0.12,0.77,12
1373706,-2.16,-4.43,9.14,0.66,-0.62,0.68,21.31,0.94,-18.00,-0.48,-0.59,0.41,-1.68,-3.84,8.73,0.58,-0.20,-0.11,0.78,12
1373747,-1.67,-2.29,7.11,0.20,-0.97,-0.05,20.81,-1.50,-16.44,-0.21,1.20,-0.97,-1.42,-3.71,8.85,0.57,-0.18,-0.11,0.79,12
1373786,-1.82,-3.55,6.92,-0.35,-1.92,-0.23,16.94,-0.94,-15.88,-0.89,1.51,-1.80,-0.77,-3.80,8.91,0.57,-0.16,-0.13,0.79,12
1373826,-1.71,-5.81,8.49,-0.38,-2.23,-0.26,12.56,-0.62,-18.62,-1.73,-1.85,-0.38,0.02,-3.96,8.87,0.57,-0.13,-0.16,0.79,12
1373866,0.75,-4.58,9.14,0.78,-1.56,0.53,14.38,-1.38,-17.69,0.20,-0.80,0.20,0.55,-3.78,8.94,0.56,-0.10,-0.18,0.80,12
1373907,2.16,-3.74,8.91,0.63,-1.13,0.20,10.88,-3.19,-16.50,1.20,-0.20,-0.40,0.96,-3.54,9.01,0.55,-0.07,-0.18,0.81,12
1373946,1.74,-3.16,8.99,0.38,-0.57,-0.07,10.94,-2.88,-16.19,0.97,-0.36,-0.13,1.20,-3.38,9.04,0.55,-0.05,-0.18,0.81,12
1373986,1.97,-2.82,9.33,0.53,-0.78,-0.26,8.56,-3.38,-16.81,0.47,0.39,0.27,1.50,-3.21,9.06,0.55,-0.03,-0.18,0.82,12
1374026,2.12,-2.52,9.10,0.81,-0.62,-0.49,8.75,-5.06,-17.00,0.32,0.40,0.00,1.80,-2.91,9.10,0.55,-0.01,-0.18,0.81,12
1374068,0.71,-1.48,6.91,1.03,-0.35,-0.78,9.31,-7.50,-14.69,-0.47,0.87,-0.63,2.02,-2.50,9.20,0.56,0.01,-0.17,0.81,12
1374106,0.90,-1.75,5.89,0.57,-0.66,-0.55,7.19,-6.75,-14.62,-1.58,0.71,-2.29,2.29,-2.19,9.21,0.57,0.03,-0.16,0.80,12
1374146,1.93,-1.79,5.70,0.12,-0.36,0.11,7.31,-6.12,-14.62,-0.54,0.31,-3.48,2.47,-2.09,9.18,0.57,0.04,-0.16,0.80,12
1374186,2.39,-2.05,6.15,-0.69,0.03,0.63,7.25,-6.44,-14.62,-0.03,0.27,-2.97,2.42,-2.32,9.12,0.57,0.04,-0.17,0.81,12
1374228,3.01,-4.05,9.14,-1.25,0.23,0.85,6.56,-3.56,-15.62,0.39,-0.48,-1.67,2.27,-2.80,9.01,0.56,0.02,-0.18,0.81,12
1374266,3.04,-3.89,11.05,-0.95,0.52,0.48,7.50,-3.50,-15.50,0.97,-0.80,0.23,2.04,-3.24,8.91,0.54,0.00,-0.20,0.81,12
1374306,2.16,-3.62,11.28,-0.53,0.61,-0.28,8.50,-2.81,-15.44,0.35,-0.16,2.42,1.81,-3.46,8.87,0.55,-0.02,-0.20,0.81,12
1374346,1.05,-4.05,11.25,0.02,-0.08,-0.19,7.44,-2.88,-16.25,-0.78,-0.55,2.41,1.83,-3.49,8.84,0.55,-0.02,-0.21,0.81,12
1374388,1.47,-3.13,9.56,0.74,-0.02,0.12,9.56,-4.50,-15.56,-0.53,-0.54,1.91,1.85,-3.28,8.91,0.55,-0.02,-0.20,0.81,12
1374426,1.36,-2.44,8.50,0.71,0.08,0.11,8.38,-4.62,-14.94,-0.33,-0.11,0.55,1.80,-3.02,9.02,0.55,-0.01,-0.19,0.81,12
1374466,1.24,-1.90,7.95,0.25,-0.24,-0.09,8.69,-5.19,-14.88,-0.61,0.98,-1.10,1.85,-2.88,9.05,0.55,-0.00,-0.18,0.82,12
1374506,1.62,-2.09,8.26,-0.06,-0.31,-0.01,8.31,-4.31,-15.38,-0.36,0.79,-0.76,1.98,-2.88,9.02,0.55,0.00,-0.18,0.82,12
1374546,2.16,-2.29,8.61,-0.21,-0.12,-0.03,6.75,-5.31,-15.88,0.12,0.66,-0.39,2.04,-2.95,8.99,0.55,0.00,-0.19,0.81,12
1374586,2.24,-3.01,8.95,-0.13,-0.10,0.02,7.00,-4.44,-14.75,0.09,0.25,-0.02,2.08,-2.99,8.97,0.55,0.00,-0.19,0.81,12
1374626,2.24,-3.20,9.03,-0.16,-0.03,0.04,7.75,-5.25,-15.38,0.14,-0.16,0.09,2.09,-3.05,8.94,0.55,0.00,-0.19,0.81,12
1374666,2.16,-3.43,9.26,-0.09,-0.03,0.09,7.44,-2.88,-16.25,0.06,-0.33,0.34,2.10,-3.10,8.91,0.55,0.00,-0.20,0.81,12
1374707,2.28,-3.43,9.33,0.08,-0.01,0.08,7.50,-3.50,-15.50,0.19,-0.35,0.41,2.09,-3.09,8.92,0.55,0.00,-0.20,0.82,12
1374747,2.28,-3.20,8.99,0.06,-0.01,0.04,5.94,-4.44,-15.62,0.23,-0.29,0.17,2.09,-3.07,8.93,0.54,0.00,-0.20,0.82,12
1374787,2.39,-2.97,8.91,0.11,-0.03,0.04,5.88,-2.94,-17.19,0.30,0.07,-0.03,2.09,-3.04,8.94,0.54,0.00,-0.19,0.82,12
1374827,2.51,-2.86,8.72,0.09,0.08,0.04,7.75,-3.75,-16.56,0.44,0.14,-0.23,2.07,-3.00,8.95,0.54,0.00,-0.19,0.82,12
1374867,2.36,-2.82,8.53,-0.06,0.11,0.02,7.69,-4.06,-16.56,0.33,0.20,-0.43,2.02,-3.02,8.96,0.54,0.00,-0.19,0.82,12
1374907,2.01,-2.90,9.07,-0.08,0.12,-0.02,8.50,-3.44,-15.00,0.21,0.14,-0.12,1.99,-3.04,8.95,0.54,-0.00,-0.19,0.82,12
1374947,1.70,-3.09,9.07,-0.07,0.07,-0.04,7.75,-4.94,-15.38,-0.27,-0.03,0.12,1.97,-3.06,8.95,0.54,-0.00,-0.19,0.82,12
1374987,1.51,-3.20,9.14,-0.07,0.03,0.04,7.94,-3.44,-15.44,-0.44,-0.11,0.20,1.95,-3.09,8.95,0.54,-0.00,-0.19,0.82,12
1375027,1.62,-3.28,9.29,0.03,0.04,0.12,7.31,-4.94,-15.44,-0.30,-0.18,0.35,1.93,-3.10,8.95,0.54,-0.01,-0.19,0.82,12
1375067,1.86,-3.24,9.18,0.08,0.05,0.17,7.00,-4.12,-15.12,-0.11,-0.23,0.30,1.89,-3.09,8.96,0.54,-0.01,-0.19,0.82,12
1375107,2.05,-3.28,9.11,0.10,0.02,0.13,8.69,-4.25,-15.31,0.18,-0.22,0.12,1.87,-3.06,8.98,0.54,-0.01,-0.19,0.82,12
1375147,2.12,-3.24,8.95,0.08,-0.03,-0.02,7.69,-4.31,-16.50,0.26,-0.20,-0.04,1.87,-3.04,8.98,0.54,-0.01,-0.19,0.82,12
1375187,2.09,-3.05,8.84,0.02,-0.01,-0.04,7.19,-4.31,-16.56,0.20,-0.04,-0.15,1.88,-3.02,8.98,0.54,-0.00,-0.19,0.82,12
1375227,1.82,-2.90,9.07,-0.02,0.05,-0.02,8.50,-4.31,-14.25,0.11,0.09,-0.07,1.87,-3.02,8.98,0.54,-0.00,-0.19,0.82,12
1375267,1.82,-2.94,9.06,0.05,-0.02,0.00,8.75,-4.00,-15.31,-0.05,0.07,0.07,1.87,-3.01,8.99,0.54,-0.00,-0.19,0.82,12
1375307,1.86,-2.78,8.88,0.00,0.04,0.02,7.88,-3.75,-15.81,-0.00,0.23,-0.12,1.86,-3.01,8.99,0.54,-0.00,-0.19,0.82,12
1375348,1.66,-2.82,8.91,-0.11,0.03,0.04,8.25,-4.56,-15.69,-0.18,0.22,-0.07,1.84,-3.04,8.98,0.54,-0.01,-0.19,0.82,12
1375387,1.78,-3.20,9.29,-0.03,-0.05,0.04,8.50,-3.44,-15.00,-0.18,0.01,0.20,1.84,-3.06,8.98,0.54,-0.01,-0.19,0.82,12
1375427,1.97,-3.16,9.07,0.09,0.01,0.13,7.88,-2.81,-16.19,0.13,-0.12,0.07,1.84,-3.05,8.99,0.54,-0.01,-0.19,0.82,12
1375467,1.93,-3.16,8.88,0.01,0.06,0.12,9.62,-4.19,-15.19,0.13,-0.12,-0.12,1.80,-3.05,9.00,0.53,-0.01,-0.19,0.82,12
1375507,1.97,-3.24,8.98,-0.02,-0.02,-0.01,8.25,-3.69,-16.06,0.18,-0.19,-0.01,1.80,-3.05,9.00,0.53,-0.01,-0.19,0.83,12
1375547,1.89,-2.86,8.88,0.14,-0.06,-0.01,9.19,-4.56,-14.81,0.11,-0.25,0.10,1.82,-3.03,9.00,0.53,-0.01,-0.19,0.83,12
1375587,2.05,-3.09,9.10,-0.13,0.10,0.02,10.12,-4.44,-14.69,0.25,-0.04,0.10,1.80,-3.05,9.00,0.53,-0.01,-0.19,0.83,12
1375627,1.78,-3.05,9.37,0.02,-0.01,-0.09,8.25,-4.00,-16.06,0.00,0.00,0.37,1.78,-3.05,9.00,0.53,-0.01,-0.19,0.83,12
1375667,1.40,-3.01,8.95,0.09,-0.20,-0.06,8.25,-4.00,-16.06,-0.43,0.01,-0.06,1.83,-3.02,9.01,0.53,-0.01,-0.19,0.82,12
1375708,2.12,-3.05,8.99,-0.11,0.15,0.20,6.94,-4.69,-15.12,-0.17,0.18,-0.39,1.80,-3.04,9.00,0.53,-0.01,-0.19,0.83,12
1375748,1.74,-3.36,9.48,-0.06,0.09,0.05,7.56,-3.50,-15.06,0.02,-0.27,0.48,1.73,-3.09,9.00,0.53,-0.01,-0.19,0.83,12
1375789,1.70,-3.24,9.33,0.09,-0.18,-0.10,6.81,-3.81,-16.69,-0.07,-0.18,0.33,1.77,-3.06,9.00,0.53,-0.01,-0.19,0.83,12
1375828,1.70,-3.20,8.95,0.04,0.03,0.06,6.81,-3.81,-16.69,-0.08,-0.16,-0.06,1.78,-3.04,9.01,0.53,-0.01,-0.19,0.83,12
1375869,1.93,-3.13,9.29,0.00,0.06,0.09,8.69,-3.69,-15.69,0.04,-0.04,-0.07,1.74,-3.05,9.02,0.53,-0.01,-0.18,0.83,12
1375909,1.86,-2.94,9.06,0.14,-0.03,-0.02,7.75,-4.06,-16.19,0.10,0.08,0.04,1.76,-3.02,9.03,0.53,-0.01,-0.18,0.83,12
1375949,1.70,-2.86,8.60,0.00,-0.02,0.01,6.69,-4.12,-17.00,-0.06,0.14,-0.43,1.77,-3.00,9.03,0.53,-0.01,-0.18,0.83,12
1375991,1.86,-3.09,9.33,-0.08,0.09,0.07,7.56,-3.38,-17.69,0.09,0.13,-0.11,1.73,-3.03,9.02,0.53,-0.01,-0.18,0.83,12
1376029,1.70,-3.05,9.10,0.07,0.01,0.00,7.56,-3.81,-14.75,0.13,-0.07,0.30,1.73,-3.02,9.03,0.53,-0.01,-0.18,0.83,12
1376069,1.51,-2.90,8.84,-0.03,-0.01,-0.03,5.94,-3.56,-16.38,-0.22,0.12,-0.20,1.73,-3.02,9.03,0.53,-0.01,-0.18,0.83,12
1376109,1.62,-3.13,9.14,-0.06,0.02,0.07,7.81,-4.06,-15.75,-0.10,-0.08,0.12,1.73,-3.05,9.02,0.53,-0.01,-0.18,0.83,12
1376149,1.78,-3.16,9.26,0.04,0.01,0.01,8.81,-3.06,-15.69,0.07,-0.12,0.23,1.71,-3.04,9.03,0.53,-0.01,-0.18,0.83,12
1376188,1.70,-3.05,9.03,0.00,-0.04,-0.01,7.50,-4.12,-15.06,-0.02,-0.12,0.08,1.73,-3.04,9.02,0.53,-0.01,-0.18,0.83,12
1376229,1.74,-3.13,9.14,-0.02,0.00,0.02,7.31,-4.94,-15.44,0.02,-0.08,0.12,1.73,-3.05,9.02,0.53,-0.01,-0.18,0.83,12
1376269,1.86,-3.16,9.18,0.03,0.01,0.00,8.25,-3.06,-16.50,0.13,-0.12,0.14,1.73,-3.04,9.04,0.53,-0.01,-0.18,0.83,12
1376309,1.82,-3.05,9.07,0.03,-0.02,-0.05,7.44,-3.81,-15.50,0.09,-0.03,0.03,1.73,-3.02,9.04,0.53,-0.01,-0.18,0.83,12
1376349,1.74,-3.09,9.14,-0.01,0.00,0.04,8.19,-4.12,-13.56,-0.03,0.06,-0.01,1.73,-3.03,9.04,0.53,-0.01,-0.18,0.83,12
1376389,1.66,-2.80,8.83,0.08,0.01,-0.01,8.94,-3.75,-14.19,-0.06,0.26,-0.29,1.73,-3.06,9.12,0.53,-0.01,-0.18,0.83,12
1376429,1.66,-2.76,8.79,-0.07,-0.05,0.05,7.88,-4.62,-15.00,-0.07,0.29,-0.30,1.73,-3.05,9.09,0.53,-0.01,-0.18,0.83,12
1376469,1.86,-2.99,9.18,-0.07,0.11,0.02,8.44,-3.75,-14.94,0.16,0.07,0.11,1.70,-3.06,9.06,0.53,-0.01,-0.18,0.83,12
1376509,1.59,-3.03,9.05,0.05,-0.07,0.02,7.50,-3.50,-15.50,-0.19,-0.11,0.26,1.70,-3.04,9.06,0.53,-0.01,-0.18,0.83,12
1376549,1.82,-3.07,8.83,0.00,0.00,0.07,8.19,-4.00,-16.50,0.11,-0.04,-0.23,1.70,-3.03,9.06,0.53,-0.01,-0.18,0.83,12
1376589,1.86,-3.14,9.02,-0.08,0.07,0.02,7.56,-2.88,-15.50,0.18,-0.09,-0.03,1.68,-3.05,9.05,0.53,-0.01,-0.18,0.83,12
1376629,1.66,-3.26,9.32,0.04,-0.04,-0.02,9.25,-4.00,-14.88,-0.02,-0.19,0.28,1.69,-3.07,9.05,0.53,-0.01,-0.18,0.83,12
1376669,1.66,-3.03,8.83,0.05,0.04,-0.01,7.62,-3.56,-14.38,0.02,-0.17,0.08,1.69,-3.05,9.05,0.53,-0.01,-0.18,0.83,12
1376709,1.70,-2.99,9.02,-0.05,0.04,0.01,9.75,-3.31,-15.25,0.02,0.09,-0.04,1.68,-3.08,9.05,0.53,-0.01,-0.18,0.83,12
1376750,1.59,-3.03,9.21,0.01,-0.02,-0.06,8.50,-4.25,-16.44,-0.10,0.05,0.16,1.69,-3.09,9.05,0.53,-0.01,-0.18,0.83,12
1383518,1.51,-3.64,9.21,-0.07,0.00,0.08,5.88,-2.94,-17.19,0.06,-0.01,0.13,1.44,-3.39,9.03,0.51,-0.03,-0.19,0.84,12
1383558,1.59,-3.64,9.17,-0.01,0.01,0.05,6.31,-2.62,-17.44,0.07,-0.25,0.18,1.44,-3.39,9.03,0.51,-0.03,-0.19,0.84,12
1383598,1.59,-3.61,9.06,0.01,-0.01,-0.03,5.50,-3.19,-19.38,0.15,-0.25,0.14,1.44,-3.39,9.03,0.51,-0.03,-0.19,0.84,12
1383638,1.39,-3.53,9.14,0.01,0.02,-0.03,7.12,-3.12,-17.75,0.15,-0.21,0.03,1.45,-3.38,9.03,0.51,-0.03,-0.19,0.84,12
1383678,1.43,-3.41,9.17,0.07,0.00,-0.03,8.25,-2.75,-16.88,-0.05,-0.15,0.10,1.45,-3.36,9.04,0.51,-0.03,-0.19,0.84,12
1383718,1.43,-3.18,8.98,0.08,-0.01,-0.04,6.62,-3.12,-18.12,-0.02,-0.05,0.13,1.46,-3.33,9.05,0.51,-0.03,-0.19,0.84,12
1383758,1.39,-3.07,8.79,0.03,0.01,-0.03,6.56,-4.06,-17.75,-0.03,0.14,-0.07,1.46,-3.32,9.06,0.52,-0.03,-0.19,0.84,12
1383798,1.36,-3.14,9.06,-0.03,0.01,-0.01,6.06,-2.88,-19.00,-0.07,0.25,-0.27,1.46,-3.34,9.05,0.52,-0.03,-0.19,0.84,12
1383838,1.39,-3.30,9.13,-0.02,-0.00,0.01,8.12,-2.75,-17.62,-0.11,0.19,0.00,1.45,-3.34,9.05,0.52,-0.03,-0.19,0.84,12
1383878,1.39,-3.30,9.06,0.02,0.00,0.02,7.25,-2.81,-17.31,-0.06,0.04,0.08,1.45,-3.38,9.05,0.52,-0.03,-0.19,0.84,12
1383918,1.43,-3.34,8.94,-0.02,-0.00,-0.01,7.00,-3.75,-18.06,-0.06,0.09,0.01,1.45,-3.38,9.04,0.52,-0.03,-0.19,0.84,12
1383958,1.47,-3.41,9.25,-0.01,0.01,-0.02,7.12,-3.12,-17.75,-0.02,0.05,-0.10,1.45,-3.38,9.05,0.52,-0.03,-0.19,0.84,12
1383999,1.51,-3.30,9.02,0.08,-0.01,-0.01,5.69,-2.62,-18.69,0.02,-0.03,0.20,1.45,-3.34,9.06,0.52,-0.03,-0.19,0.84,12
1384039,1.51,-3.07,8.79,0.03,0.03,-0.04,6.31,-3.50,-17.06,0.06,0.05,-0.04,1.45,-3.34,9.06,0.52,-0.03,-0.19,0.84,12
1384079,1.39,-3.14,8.94,-0.04,0.00,-0.04,7.75,-3.94,-19.06,0.06,0.27,-0.27,1.47,-3.32,9.05,0.52,-0.03,-0.19,0.84,12
1384119,1.36,-3.18,9.09,0.01,0.05,-0.00,7.62,-2.81,-17.69,-0.07,0.18,-0.11,1.45,-3.30,9.05,0.52,-0.03,-0.19,0.84,12
1384159,1.36,-3.18,9.09,-0.00,-0.01,-0.01,7.06,-3.44,-18.06,-0.09,0.12,0.05,1.44,-3.29,9.04,0.52,-0.03,-0.19,0.83,12
1384199,1.39,-3.26,9.02,0.02,-0.00,0.01,7.81,-2.25,-17.31,-0.08,0.11,0.06,1.43,-3.27,9.05,0.52,-0.03,-0.19,0.84,12
1384239,1.39,-3.30,8.98,-0.02,-0.01,0.01,8.75,-2.94,-18.62,-0.04,0.00,-0.03,1.43,-3.27,9.05,0.52,-0.03,-0.19,0.84,12
1384279,1.55,-3.30,9.17,0.01,0.00,0.00,8.00,-3.94,-17.56,-0.04,-0.03,-0.07,1.43,-3.26,9.05,0.52,-0.03,-0.19,0.84,12
1384319,1.55,-3.22,8.98,0.05,-0.01,-0.02,8.06,-3.69,-17.19,0.12,-0.04,0.12,1.43,-3.24,9.05,0.52,-0.03,-0.19,0.84,12
1384359,1.39,-3.18,8.91,0.00,0.02,-0.05,9.00,-3.94,-16.38,0.12,0.02,-0.07,1.45,-3.23,9.05,0.52,-0.03,-0.18,0.83,12
1384399,1.36,-3.18,9.09,-0.01,-0.01,-0.01,6.50,-4.31,-18.12,-0.05,0.05,-0.15,1.45,-3.23,9.05,0.52,-0.03,-0.18,0.83,12
1384439,1.39,-3.11,9.02,0.04,0.01,0.01,6.06,-3.81,-18.19,-0.09,0.05,0.05,1.44,-3.22,9.05,0.52,-0.03,-0.18,0.83,12
1384479,1.39,-3.03,8.91,0.02,-0.02,0.00,7.12,-3.12,-17.75,-0.04,0.11,-0.04,1.44,-3.21,9.05,0.52,-0.03,-0.18,0.83,12
1384519,1.39,-3.11,8.94,-0.04,-0.00,0.02,8.12,-3.38,-17.19,-0.04,0.18,-0.14,1.43,-3.20,9.04,0.52,-0.03,-0.18,0.83,12
1384559,1.39,-3.14,9.05,-0.04,-0.00,0.02,8.00,-3.94,-17.56,-0.04,0.10,-0.10,1.43,-3.20,9.02,0.52,-0.03,-0.18,0.83,12
1384599,1.55,-3.38,9.09,-0.02,-0.03,0.04,7.06,-3.12,-18.44,-0.04,0.06,0.04,1.41,-3.20,9.02,0.52,-0.03,-0.19,0.84,12
1384639,1.59,-3.38,9.05,0.01,0.01,0.02,6.56,-3.75,-18.12,0.13,-0.17,0.07,1.42,-3.20,9.02,0.52,-0.03,-0.19,0.84,12
1384679,1.62,-3.38,8.98,0.01,0.00,-0.01,9.62,-2.12,-16.75,0.16,-0.17,0.04,1.44,-3.22,9.03,0.52,-0.03,-0.18,0.84,12
1384719,1.47,-3.30,9.02,-0.01,0.03,-0.05,7.12,-4.06,-17.31,0.19,-0.16,-0.05,1.45,-3.24,9.04,0.52,-0.03,-0.18,0.84,12
1384760,1.36,-3.22,9.10,0.03,0.02,-0.03,6.62,-3.12,-18.12,0.02,-0.05,-0.02,1.45,-3.24,9.05,0.52,-0.03,-0.18,0.83,12
1384799,1.36,-3.11,9.02,0.04,0.02,-0.02,7.50,-2.44,-18.81,-0.09,0.02,0.05,1.45,-3.23,9.05,0.52,-0.03,-0.18,0.83,12
1384839,1.36,-3.14,9.06,0.01,-0.01,-0.01,7.75,-3.44,-16.56,-0.09,0.12,-0.04,1.45,-3.23,9.05,0.52,-0.03,-0.18,0.83,12
1384879,1.36,-3.03,9.06,0.02,-0.01,0.01,7.44,-3.69,-18.38,-0.09,0.08,0.00,1.44,-3.20,9.06,0.52,-0.03,-0.18,0.83,12
1384920,1.55,-3.53,9.13,-0.02,-0.03,0.03,8.06,-3.06,-17.62,-0.08,0.17,-0.00,1.43,-3.20,9.05,0.52,-0.03,-0.18,0.83,12
1384959,1.78,-3.64,9.29,0.02,-0.01,-0.01,6.62,-3.44,-17.81,0.12,-0.32,0.08,1.44,-3.20,9.07,0.52,-0.02,-0.18,0.83,12
1385000,1.09,-2.23,9.10,0.12,0.10,-0.09,7.81,-3.75,-16.12,0.34,-0.45,0.22,1.43,-3.16,9.10,0.52,-0.02,-0.18,0.83,12
1385040,0.97,-2.15,8.07,0.21,-0.06,0.18,7.88,-3.94,-18.31,-0.34,0.94,-0.00,1.37,-3.15,9.11,0.52,-0.02,-0.18,0.84,12
1385081,0.86,-2.95,9.25,-0.53,0.31,0.12,7.00,-2.81,-18.88,-0.39,1.00,-1.05,1.30,-3.37,9.04,0.52,-0.03,-0.18,0.84,12
1385120,1.93,-4.22,10.86,-0.48,-0.15,0.24,6.69,-1.69,-18.94,-0.44,0.41,0.21,1.28,-3.48,9.00,0.51,-0.04,-0.19,0.84,12
1385160,2.35,-4.98,9.98,0.19,0.09,0.22,7.62,-2.81,-17.69,0.65,-0.74,1.86,1.25,-3.41,9.03,0.51,-0.04,-0.19,0.84,12
1385200,2.05,-4.22,8.63,0.19,-0.03,-0.16,7.06,-2.81,-18.44,1.10,-1.58,0.95,1.30,-3.35,9.05,0.51,-0.04,-0.19,0.84,12
1385242,1.36,-3.57,8.98,0.01,-0.02,-0.21,5.81,-2.62,-17.94,0.75,-0.87,-0.41,1.30,-3.33,9.06,0.51,-0.03,-0.19,0.84,12
1385280,0.90,-3.18,9.05,0.09,0.21,-0.15,6.62,-3.44,-17.81,0.06,-0.24,-0.08,1.26,-3.29,9.08,0.52,-0.03,-0.18,0.84,12
1385320,0.67,-2.91,9.29,0.02,-0.03,-0.14,7.12,-4.06,-17.31,-0.36,0.11,-0.02,1.30,-3.27,9.08,0.52,-0.03,-0.18,0.83,12
1385360,1.09,-3.34,9.48,0.10,0.02,-0.00,9.44,-2.62,-17.50,-0.63,0.36,0.21,1.29,-3.23,9.09,0.52,-0.03,-0.18,0.83,12
1385402,1.09,-2.84,8.83,0.17,-0.03,-0.02,9.31,-3.25,-17.81,-0.20,-0.11,0.39,1.32,-3.17,9.11,0.52,-0.03,-0.18,0.83,12
1385440,1.51,-3.07,8.64,0.11,-0.07,0.07,7.62,-3.44,-17.25,-0.23,0.33,-0.28,1.31,-3.14,9.12,0.52,-0.03,-0.18,0.84,12
1385480,1.47,-2.84,8.83,-0.04,0.11,-0.00,7.62,-4.00,-16.88,0.20,0.07,-0.48,1.30,-3.16,9.12,0.52,-0.03,-0.18,0.84,12
1385520,1.36,-2.84,9.25,-0.03,-0.12,-0.04,7.56,-3.06,-18.00,0.18,0.32,-0.29,1.33,-3.16,9.12,0.52,-0.03,-0.18,0.84,12
1385563,1.39,-3.34,8.94,0.04,0.10,0.03,8.12,-3.06,-17.19,0.03,0.32,0.13,1.30,-3.15,9.12,0.52,-0.03,-0.18,0.84,12
1385600,1.09,-2.99,9.13,-0.03,0.04,-0.08,8.75,-2.94,-18.62,0.10,-0.19,-0.18,1.30,-3.15,9.12,0.52,-0.03,-0.18,0.84,12
1385640,0.93,-3.03,9.21,-0.02,0.01,-0.03,9.19,-3.31,-16.00,-0.21,0.16,0.02,1.30,-3.16,9.11,0.52,-0.03,-0.18,0.83,12
1385680,1.05,-3.07,9.21,0.01,-0.06,0.05,8.44,-3.00,-17.94,-0.36,0.12,0.10,1.31,-3.16,9.11,0.52,-0.03,-0.18,0.83,12
1385723,1.47,-3.22,8.98,0.03,-0.03,0.08,7.62,-2.50,-18.06,-0.26,0.09,0.10,1.31,-3.15,9.11,0.52,-0.03,-0.18,0.84,12
1385760,1.51,-3.14,8.94,-0.01,-0.04,0.01,9.31,-3.25,-17.81,0.16,-0.07,-0.13,1.33,-3.16,9.10,0.52,-0.03,-0.18,0.84,12
1385800,1.32,-2.95,8.94,-0.05,-0.02,-0.03,6.88,-3.81,-16.25,0.18,0.01,-0.16,1.34,-3.18,9.10,0.52,-0.03,-0.18,0.84,12
1385840,1.47,-3.14,9.02,-0.03,0.00,0.12,8.81,-3.56,-17.88,-0.02,0.23,-0.16,1.31,-3.20,9.09,0.52,-0.03,-0.18,0.84,12
1385881,1.70,-3.61,9.13,-0.04,0.04,-0.03,7.00,-4.00,-18.06,0.16,0.05,-0.07,1.31,-3.20,9.09,0.52,-0.03,-0.18,0.84,12
1385920,1.05,-3.38,9.32,-0.02,-0.00,-0.12,7.06,-3.44,-18.06,0.39,-0.40,0.04,1.32,-3.20,9.09,0.52,-0.03,-0.18,0.84,12
1385961,1.24,-3.30,9.40,0.08,0.01,0.04,7.75,-3.75,-16.56,-0.27,-0.18,0.23,1.31,-3.16,9.10,0.52,-0.03,-0.18,0.84,12
1386001,1.36,-3.11,8.98,0.14,-0.02,-0.03,7.81,-3.94,-18.69,-0.07,-0.13,0.30,1.34,-3.12,9.12,0.52,-0.03,-0.18,0.84,12
1386041,1.16,-2.91,8.75,-0.02,-0.05,-0.05,6.50,-3.75,-18.50,0.02,0.02,-0.14,1.35,-3.13,9.11,0.52,-0.03,-0.18,0.84,12
1386082,1.39,-2.84,9.32,0.01,0.01,0.05,6.50,-3.75,-18.50,-0.19,0.22,-0.36,1.34,-3.12,9.12,0.52,-0.03,-0.18,0.84,12
1386122,1.36,-2.72,8.94,0.09,-0.07,0.04,8.25,-3.06,-16.50,0.05,0.29,0.21,1.37,-3.10,9.12,0.52,-0.03,-0.18,0.84,12
1386162,1.32,-2.91,8.52,-0.04,-0.03,0.07,7.75,-3.62,-19.06,-0.01,0.38,-0.18,1.36,-3.13,9.10,0.52,-0.02,-0.18,0.84,12
1386202,1.47,-3.03,8.91,-0.12,0.03,0.15,6.00,-3.81,-18.50,-0.04,0.22,-0.58,1.33,-3.16,9.09,0.52,-0.03,-0.18,0.84,12
1386242,1.51,-3.41,9.06,-0.02,0.05,0.03,6.00,-3.81,-18.50,0.14,0.13,-0.19,1.33,-3.17,9.09,0.51,-0.03,-0.18,0.84,12
1386282,1.20,-3.49,8.98,-0.06,-0.05,-0.09,7.75,-3.75,-16.56,0.18,-0.24,-0.04,1.34,-3.20,9.08,0.51,-0.03,-0.18,0.84,12
1386322,1.20,-3.64,9.40,-0.07,0.05,0.01,7.38,-4.00,-18.38,-0.14,-0.29,-0.10,1.33,-3.21,9.08,0.52,-0.03,-0.18,0.84,12
1386362,1.36,-3.38,9.59,0.12,0.00,0.03,8.25,-3.94,-18.25,-0.12,-0.43,0.32,1.34,-3.16,9.09,0.52,-0.03,-0.18,0.84,12
1386402,1.39,-2.91,8.53,0.12,-0.04,-0.02,7.81,-4.81,-17.94,0.02,-0.21,0.50,1.34,-3.13,9.11,0.52,-0.03,-0.18,0.84,12
1386442,1.36,-2.91,8.71,-0.07,0.04,-0.01,8.31,-3.44,-16.06,0.06,0.22,-0.59,1.33,-3.16,9.09,0.52,-0.03,-0.18,0.84,12
1386482,1.28,-3.30,9.29,-0.10,0.02,-0.00,8.44,-3.00,-17.94,0.03,0.25,-0.38,1.32,-3.20,9.09,0.52,-0.03,-0.18,0.84,12
1386522,1.32,-3.38,9.52,0.04,-0.01,0.02,4.12,-4.50,-18.81,-0.04,-0.10,0.20,1.33,-3.17,9.09,0.52,-0.03,-0.18,0.84,12
1386562,1.28,-3.14,8.71,0.07,-0.02,-0.02,7.12,-3.44,-17.75,-0.01,-0.20,0.43,1.34,-3.16,9.10,0.52,-0.03,-0.18,0.84,12
1386602,1.28,-3.11,8.94,-0.06,-0.03,-0.02,8.56,-4.00,-16.44,-0.05,0.01,-0.39,1.34,-3.17,9.09,0.52,-0.03,-0.18,0.84,12
1386642,1.43,-3.18,9.36,0.00,0.01,0.04,9.81,-3.81,-17.38,-0.06,0.07,-0.15,1.34,-3.16,9.09,0.52,-0.03,-0.18,0.84,12
1386682,1.51,-3.07,9.05,0.06,-0.01,-0.01,5.62,-2.94,-18.62,0.10,-0.02,0.27,1.35,-3.16,9.10,0.52,-0.03,-0.18,0.84,12
1386722,1.39,-3.14,9.74,-0.09,-0.02,-0.02,7.69,-3.44,-16.94,0.16,0.09,-0.04,1.38,-3.17,9.09,0.52,-0.03,-0.18,0.84,12
1386762,1.62,-3.14,9.82,0.26,-0.16,-0.04,9.19,-4.25,-15.25,0.02,0.03,0.66,1.44,-3.07,9.11,0.52,-0.02,-0.18,0.84,12
1386802,1.47,-3.03,8.75,0.29,-0.08,-0.08,7.38,-4.88,-17.94,0.19,-0.07,0.71,1.48,-2.99,9.13,0.52,-0.02,-0.18,0.84,12
1386842,1.51,-2.72,8.41,0.06,-0.02,-0.01,8.00,-4.56,-17.19,-0.00,-0.04,-0.38,1.47,-2.98,9.14,0.52,-0.02,-0.17,0.84,12
1386882,1.32,-2.99,8.48,-0.10,0.10,-0.03,5.81,-4.06,-19.62,0.04,0.25,-0.73,1.45,-3.03,9.12,0.52,-0.02,-0.17,0.84,12
1386922,1.28,-3.30,9.06,-0.29,0.10,-0.03,7.75,-3.75,-16.56,-0.13,0.04,-0.64,1.41,-3.13,9.09,0.52,-0.02,-0.18,0.84,12
1386962,1.20,-3.53,9.44,-0.26,0.14,-0.00,7.50,-3.38,-18.00,-0.12,-0.16,-0.03,1.36,-3.21,9.07,0.52,-0.03,-0.18,0.84,12
1387002,1.16,-3.53,9.67,-0.09,0.02,0.04,7.06,-4.06,-17.69,-0.16,-0.32,0.37,1.34,-3.23,9.07,0.52,-0.03,-0.18,0.84,12
1387042,1.47,-3.18,9.13,0.11,0.06,0.08,6.94,-4.88,-17.69,-0.18,-0.30,0.60,1.32,-3.20,9.09,0.52,-0.03,-0.18,0.84,12
1387083,1.36,-3.03,8.79,0.05,-0.02,-0.03,6.88,-2.31,-17.06,0.15,0.01,0.05,1.33,-3.19,9.08,0.52,-0.03,-0.18,0.84,12
1387123,1.36,-2.99,8.75,-0.03,0.02,0.01,8.94,-3.31,-17.50,0.03,0.16,-0.29,1.30,-3.20,9.08,0.52,-0.03,-0.18,0.84,12
1387163,1.39,-2.99,8.94,-0.06,0.06,0.07,8.88,-3.00,-17.88,0.05,0.21,-0.33,1.28,-3.22,9.08,0.52,-0.03,-0.18,0.84,12
1387203,1.36,-3.03,9.18,-0.05,0.06,-0.01,8.06,-3.06,-18.00,0.11,0.23,-0.14,1.27,-3.24,9.07,0.52,-0.03,-0.18,0.84,12
1387243,1.28,-3.18,9.14,0.00,-0.04,-0.03,8.00,-4.25,-17.19,0.08,0.21,0.10,1.29,-3.24,9.07,0.52,-0.03,-0.18,0.84,12
1387283,1.36,-3.26,9.29,-0.03,-0.02,-0.00,7.19,-3.12,-17.31,-0.01,0.06,0.06,1.30,-3.26,9.06,0.52,-0.03,-0.18,0.84,12
1387323,1.51,-3.45,9.90,0.13,-0.12,-0.03,7.06,-4.06,-17.69,0.05,-0.00,0.23,1.36,-3.18,9.09,0.52,-0.03,-0.18,0.84,12
1387363,1.24,-3.18,8.75,0.28,0.03,-0.12,7.38,-3.38,-18.75,0.15,-0.27,0.82,1.33,-3.08,9.12,0.52,-0.03,-0.18,0.84,12
1387403,1.36,-2.95,8.83,0.25,0.14,0.18,6.25,-5.00,-16.25,-0.09,-0.11,-0.37,1.26,-3.01,9.16,0.52,-0.03,-0.17,0.84,12
1387443,1.51,-2.80,9.09,0.17,0.15,0.19,9.00,-4.19,-16.38,0.10,0.05,-0.33,1.18,-2.95,9.18,0.51,-0.03,-0.17,0.84,12
1387483,1.59,-2.68,9.32,0.19,0.15,0.02,8.31,-3.94,-17.88,0.33,0.15,-0.08,1.12,-2.89,9.21,0.51,-0.03,-0.16,0.84,12
1387523,1.36,-2.57,9.14,0.18,0.21,-0.07,8.88,-3.88,-17.50,0.46,0.21,0.11,1.05,-2.84,9.23,0.51,-0.03,-0.16,0.84,12
1387563,1.36,-2.65,9.02,0.15,0.22,-0.15,8.75,-5.06,-17.00,0.31,0.27,-0.10,0.96,-2.77,9.27,0.52,-0.03,-0.15,0.84,12
1387603,1.20,-2.61,8.87,0.14,0.38,-0.13,10.56,-5.56,-16.44,0.39,0.12,-0.25,0.83,-2.73,9.30,0.52,-0.03,-0.15,0.84,12
1387643,1.05,-2.61,8.91,0.08,0.48,-0.14,10.25,-5.31,-16.12,0.38,0.12,-0.43,0.66,-2.70,9.31,0.52,-0.04,-0.14,0.84,12
1387683,0.59,-2.91,9.48,-0.14,0.45,-0.20,10.12,-4.62,-17.62,0.39,0.09,-0.41,0.52,-2.75,9.30,0.53,-0.05,-0.14,0.84,12
1387723,0.52,-3.03,9.48,-0.07,0.40,-0.30,11.38,-5.50,-16.69,0.07,-0.16,0.18,0.39,-2.75,9.31,0.53,-0.06,-0.13,0.83,12
1387766,0.29,-2.88,9.18,0.13,0.47,-0.26,11.94,-5.12,-16.31,0.12,-0.28,0.17,0.24,-2.70,9.33,0.54,-0.06,-0.13,0.83,12
1387803,-0.14,-2.72,8.87,0.06,0.53,-0.22,10.44,-6.38,-16.75,0.04,-0.17,-0.16,0.09,-2.70,9.33,0.54,-0.07,-0.12,0.83,12
1387843,-0.41,-2.84,8.91,-0.17,0.28,-0.14,12.19,-4.75,-17.69,-0.22,-0.02,-0.46,0.02,-2.76,9.31,0.55,-0.08,-0.12,0.82,12
1387883,-0.37,-2.99,9.02,-0.25,0.12,-0.12,11.81,-4.81,-17.44,-0.43,-0.08,-0.41,-0.01,-2.87,9.27,0.55,-0.08,-0.12,0.82,12
1387923,-0.10,-3.11,9.40,-0.29,0.14,0.01,13.12,-4.69,-17.25,-0.36,-0.12,-0.25,-0.05,-2.96,9.25,0.55,-0.09,-0.12,0.82,12
1387963,0.02,-2.84,9.06,-0.18,0.13,0.04,11.44,-4.56,-17.12,-0.04,-0.14,0.15,-0.10,-3.03,9.22,0.55,-0.09,-0.13,0.82,12
1388003,-0.06,-2.38,7.68,-0.29,0.06,-0.01,12.00,-4.88,-16.31,0.12,0.19,-0.16,-0.11,-3.16,9.17,0.55,-0.09,-0.13,0.82,12
1388043,-0.10,-2.49,7.48,-0.57,-0.03,0.05,13.00,-3.88,-16.19,0.05,0.78,-1.49,-0.12,-3.41,9.08,0.55,-0.10,-0.14,0.82,12
1388083,-0.06,-2.91,8.98,-1.11,-0.08,0.07,10.38,-2.12,-15.12,0.03,0.91,-1.59,-0.12,-3.78,8.91,0.55,-0.11,-0.15,0.82,12
1388124,0.32,-3.53,10.36,-0.85,0.08,0.07,10.94,-1.50,-14.75,0.05,0.87,0.07,-0.18,-4.02,8.81,0.54,-0.12,-0.17,0.81,12
1388164,-0.29,-4.06,9.94,-0.32,0.25,-0.05,9.00,-1.00,-16.12,0.50,0.50,1.55,-0.27,-4.09,8.77,0.54,-0.13,-0.17,0.81,12
1388204,-0.71,-4.79,10.51,-0.07,0.41,-0.20,11.38,-1.19,-14.75,-0.02,0.02,1.16,-0.41,-4.12,8.75,0.54,-0.13,-0.17,0.81,12
1388244,-0.56,-4.91,9.25,0.60,0.72,-0.01,11.50,-1.81,-13.62,-0.30,-0.68,1.76,-0.66,-3.80,8.88,0.55,-0.14,-0.16,0.81,12
1388288,-1.13,-3.11,6.68,1.13,0.84,0.08,12.56,-2.25,-14.50,0.10,-1.11,0.37,-0.97,-3.47,8.98,0.55,-0.14,-0.14,0.81,12
1388324,-1.67,-2.15,6.95,0.56,0.84,0.16,10.88,-2.38,-14.75,-0.16,0.36,-2.30,-1.27,-3.30,9.01,0.56,-0.15,-0.12,0.81,12
1388364,-1.82,-2.68,7.72,-0.38,0.52,0.11,12.06,-1.69,-15.38,-0.39,1.16,-2.06,-1.42,-3.56,8.88,0.56,-0.16,-0.10,0.81,12
1388404,-1.63,-4.45,9.36,-1.29,0.12,-0.36,11.75,-0.94,-12.88,-0.40,0.88,-1.16,-1.42,-3.95,8.71,0.56,-0.17,-0.12,0.80,12
1388444,-1.48,-4.75,9.09,-0.50,0.17,-0.16,8.75,1.94,-17.38,-0.21,-0.50,0.65,-1.48,-4.15,8.60,0.56,-0.19,-0.13,0.80,12
1388485,-1.67,-4.98,8.98,-0.74,0.22,0.09,9.19,3.12,-17.81,0.00,-0.61,0.50,-1.56,-4.38,8.46,0.56,-0.20,-0.14,0.79,12
1388524,-1.32,-4.98,8.71,-0.60,0.09,0.23,9.88,4.94,-17.81,-0.11,-0.60,0.52,-1.64,-4.55,8.36,0.55,-0.21,-0.15,0.79,12
1388564,-1.32,-4.68,8.13,-0.49,0.16,0.11,10.50,5.88,-17.38,0.32,-0.44,0.36,-1.70,-4.70,8.26,0.55,-0.21,-0.15,0.79,12
1388608,-1.21,-4.48,7.72,-0.38,0.17,0.01,7.75,8.69,-20.06,0.37,0.03,-0.12,-1.77,-4.84,8.16,0.55,-0.22,-0.16,0.79,12
1388645,-1.40,-7.21,10.05,-0.78,0.35,0.11,8.69,10.81,-21.50,0.56,0.35,-0.45,-1.91,-5.11,7.96,0.54,-0.23,-0.16,0.79,12
1388685,-1.94,-7.86,10.55,-0.57,0.46,0.21,9.31,12.00,-21.50,0.51,-2.10,2.09,-2.16,-5.13,7.88,0.54,-0.25,-0.17,0.79,12
1388725,-2.66,-5.71,8.41,0.56,0.78,0.44,11.69,10.06,-18.94,0.23,-2.72,2.67,-2.47,-4.94,7.93,0.54,-0.26,-0.16,0.79,12
1388765,-2.93,-4.06,6.98,0.36,0.45,0.15,10.38,10.06,-21.25,-0.20,-0.77,0.48,-2.61,-4.87,7.94,0.54,-0.26,-0.14,0.79,12
1388806,-2.93,-4.52,7.60,-0.26,0.11,0.04,12.12,12.19,-20.06,-0.32,0.80,-0.95,-2.62,-4.97,7.87,0.54,-0.27,-0.14,0.79,12
1388845,-2.70,-5.25,8.02,-0.36,-0.05,0.04,11.62,11.31,-20.44,-0.31,0.45,-0.27,-2.62,-5.05,7.81,0.53,-0.27,-0.15,0.79,12
1388885,-2.74,-5.41,8.02,-0.08,-0.11,0.09,12.25,12.44,-19.69,-0.09,-0.20,0.21,-2.60,-5.07,7.81,0.53,-0.27,-0.15,0.79,12
1388925,-2.66,-5.25,7.91,-0.04,-0.09,0.09,12.00,12.50,-21.19,-0.14,-0.34,0.21,-2.60,-5.08,7.81,0.53,-0.27,-0.15,0.79,12
1388966,-2.66,-5.14,7.91,-0.04,0.01,0.09,11.81,12.56,-22.31,-0.06,-0.17,0.10,-2.61,-5.09,7.81,0.53,-0.27,-0.15,0.79,12
1389005,-2.74,-4.95,7.64,0.01,-0.03,0.00,12.06,13.44,-21.56,-0.05,-0.05,0.10,-2.59,-5.09,7.82,0.53,-0.27,-0.15,0.79,12
1389045,-2.86,-4.79,7.64,-0.01,-0.12,-0.10,11.50,13.00,-19.44,-0.15,0.14,-0.18,-2.53,-5.10,7.84,0.53,-0.27,-0.15,0.79,12
1389085,-2.78,-4.83,7.61,0.02,-0.16,-0.03,11.94,13.12,-22.00,-0.32,0.31,-0.20,-2.47,-5.09,7.86,0.53,-0.27,-0.15,0.79,12
1389126,-3.39,-4.79,7.79,0.06,-0.41,-0.36,11.75,12.56,-22.62,-0.31,0.26,-0.26,-2.15,-5.12,7.94,0.53,-0.26,-0.16,0.79,12
1389170,-2.02,-5.79,8.79,1.41,-1.88,-0.49,9.56,11.31,-24.38,-1.25,0.32,-0.14,-1.55,-4.79,8.27,0.53,-0.24,-0.17,0.79,12
1389206,-1.09,-4.95,8.63,0.71,-0.87,-0.40,7.81,8.38,-25.12,-0.47,-1.00,0.52,-1.19,-4.45,8.52,0.54,-0.21,-0.17,0.80,12
1389246,-0.79,-4.14,8.14,1.13,-0.57,-0.50,5.00,5.56,-26.44,0.09,-0.50,0.11,-0.94,-4.26,8.66,0.55,-0.18,-0.16,0.80,12
1389288,-1.82,-4.29,8.41,0.55,-0.24,-0.89,4.00,4.88,-26.56,0.15,0.12,-0.52,-0.69,-4.00,8.80,0.56,-0.17,-0.16,0.80,12
1389331,-0.21,-4.29,9.29,1.15,-1.32,-0.72,4.12,2.56,-26.75,-1.14,-0.29,-0.39,-0.17,-3.70,8.96,0.57,-0.14,-0.15,0.79,12
1389366,1.62,-3.30,9.82,0.22,-0.92,-0.31,3.31,2.19,-26.12,-0.04,-0.60,0.33,0.09,-3.66,8.98,0.58,-0.12,-0.15,0.79,12
1389406,1.36,-3.87,8.79,-0.16,0.04,-0.03,4.06,2.31,-27.12,1.54,0.36,0.85,0.03,-3.66,8.97,0.58,-0.11,-0.16,0.79,12
1389448,0.05,-3.30,9.48,0.25,0.33,0.19,2.88,1.62,-28.31,1.32,-0.21,-0.18,-0.15,-3.61,8.99,0.58,-0.11,-0.16,0.79,12
1389486,-0.75,-3.30,9.36,-0.04,0.49,0.15,3.06,2.25,-27.62,0.20,0.31,0.49,-0.29,-3.63,8.99,0.58,-0.12,-0.15,0.79,12
1389526,-1.06,-3.80,8.71,-0.08,0.05,0.03,3.75,1.88,-25.69,-0.46,0.34,0.37,-0.30,-3.67,8.97,0.58,-0.12,-0.15,0.80,12
1389566,-0.06,-3.87,8.37,-0.05,-0.17,0.01,3.69,2.25,-26.44,-0.76,-0.12,-0.25,-0.27,-3.66,8.98,0.57,-0.12,-0.15,0.80,12
1389608,-0.60,-3.53,9.36,0.11,0.23,0.09,1.81,3.00,-27.81,0.21,-0.21,-0.61,-0.38,-3.66,8.97,0.57,-0.12,-0.15,0.80,12
1389646,-0.67,-3.80,8.52,-0.21,0.06,0.06,3.12,3.06,-27.62,-0.22,0.13,0.39,-0.38,-3.73,8.95,0.57,-0.13,-0.14,0.80,12
1389686,-0.06,-3.80,8.71,-0.08,-0.02,0.07,3.00,3.31,-25.88,-0.30,-0.07,-0.43,-0.41,-3.73,8.95,0.57,-0.13,-0.15,0.80,12
1389726,-0.64,-3.76,9.02,0.13,0.20,0.07,3.25,3.06,-26.88,0.35,-0.07,-0.24,-0.47,-3.70,8.96,0.57,-0.13,-0.15,0.80,12
1389766,-1.02,-3.45,9.21,-0.04,-0.07,-0.05,3.50,2.56,-27.94,-0.17,-0.06,0.06,-0.41,-3.72,8.95,0.57,-0.13,-0.14,0.80,12
1389806,-0.06,-3.84,8.83,0.04,-0.18,-0.08,3.50,2.56,-27.94,-0.61,0.27,0.26,-0.38,-3.69,8.97,0.57,-0.13,-0.15,0.80,12
1389846,-0.48,-3.57,9.18,0.10,0.14,-0.04,3.50,3.31,-25.81,0.31,-0.15,-0.14,-0.39,-3.66,8.98,0.57,-0.13,-0.14,0.80,12
1389886,-0.45,-3.61,9.09,-0.03,-0.14,-0.02,4.00,2.31,-27.50,-0.09,0.10,0.20,-0.37,-3.68,8.98,0.57,-0.13,-0.14,0.80,12
1389926,-0.14,-3.80,8.75,0.02,0.05,0.02,4.38,1.75,-27.44,-0.08,0.07,0.12,-0.40,-3.66,8.98,0.57,-0.13,-0.15,0.80,12
1389966,-0.52,-3.61,9.10,0.03,0.03,0.00,4.38,1.75,-27.44,0.26,-0.13,-0.23,-0.39,-3.66,8.98,0.57,-0.13,-0.14,0.80,12
1390006,-0.33,-3.64,8.98,-0.02,-0.05,0.00,4.88,2.56,-25.19,-0.13,0.06,0.11,-0.39,-3.67,8.98,0.57,-0.13,-0.14,0.80,12
1390046,-0.48,-3.72,8.83,0.00,0.03,0.01,4.94,3.00,-27.44,0.06,0.03,0.00,-0.39,-3.66,8.98,0.57,-0.13,-0.14,0.80,12
1390086,-0.56,-3.64,8.94,0.04,-0.06,-0.04,3.19,2.19,-26.88,-0.09,-0.05,-0.16,-0.37,-3.66,8.98,0.57,-0.13,-0.14,0.80,12
1390126,-0.33,-3.64,8.94,-0.00,-0.03,-0.02,3.19,3.06,-27.25,-0.19,0.02,-0.04,-0.36,-3.66,8.98,0.57,-0.13,-0.14,0.80,12
1390166,-0.21,-3.72,8.91,-0.01,-0.00,0.02,2.81,2.44,-26.50,0.03,0.02,-0.04,-0.38,-3.66,8.98,0.57,-0.13,-0.14,0.80,12
1390207,-0.45,-3.61,8.98,0.02,0.06,0.02,2.75,2.19,-26.50,0.16,-0.05,-0.08,-0.39,-3.66,8.98,0.57,-0.13,-0.14,0.80,12
1390247,-0.45,-3.57,9.06,-0.02,-0.01,0.00,3.62,4.38,-28.31,-0.05,0.05,-0.00,-0.38,-3.66,8.98,0.57,-0.13,-0.14,0.80,12
1390287,-0.21,-3.72,8.91,-0.02,-0.01,0.02,3.19,2.81,-27.25,-0.06,0.10,0.07,-0.42,-3.64,8.98,0.57,-0.13,-0.14,0.80,12
1390327,-0.49,-3.60,9.02,0.01,0.11,0.04,4.88,1.62,-24.44,0.21,-0.08,-0.07,-0.45,-3.64,8.98,0.57,-0.13,-0.14,0.80,12
1390367,-0.64,-3.60,8.98,-0.00,0.01,0.02,4.06,2.56,-27.12,-0.04,0.04,0.04,-0.45,-3.64,8.98,0.57,-0.13,-0.14,0.80,12
1390408,-0.49,-3.71,8.90,-0.00,-0.04,-0.01,3.50,1.62,-27.12,-0.19,0.04,0.00,-0.45,-3.64,8.97,0.57,-0.13,-0.14,0.80,12
1390447,-0.49,-3.60,9.02,0.02,0.03,0.01,4.50,2.00,-27.00,-0.04,-0.07,-0.07,-0.45,-3.64,8.97,0.57,-0.13,-0.14,0.80,12
1390487,-0.64,-3.60,8.98,0.01,-0.02,-0.03,5.00,2.56,-24.50,-0.04,0.04,0.05,-0.45,-3.64,8.97,0.57,-0.13,-0.14,0.80,12
1390527,-0.37,-3.68,8.94,-0.00,-0.09,-0.04,5.19,3.50,-26.25,-0.20,0.04,0.01,-0.43,-3.63,8.97,0.57,-0.13,-0.14,0.80,12
1390568,-0.14,-3.68,8.94,0.01,0.04,0.02,4.50,3.50,-27.81,0.06,-0.04,-0.03,-0.45,-3.64,8.97,0.57,-0.13,-0.14,0.80,12
1390607,-0.64,-3.60,8.98,0.00,0.04,0.01,5.44,2.06,-26.19,0.30,-0.04,-0.03,-0.44,-3.65,8.97,0.57,-0.13,-0.14,0.80,12
1390648,-0.37,-3.64,8.90,0.00,-0.07,-0.03,3.38,2.81,-26.12,-0.20,0.05,0.01,-0.41,-3.64,8.97,0.57,-0.13,-0.14,0.80,12
1390688,-0.18,-3.68,8.98,0.00,0.03,0.02,4.19,2.25,-26.31,0.04,0.00,-0.07,-0.43,-3.64,8.97,0.57,-0.13,-0.14,0.80,12
1390728,-0.45,-3.60,9.02,0.00,0.06,0.03,2.56,3.38,-28.44,0.25,-0.04,0.01,-0.43,-3.64,8.97,0.57,-0.13,-0.14,0.80,12
1392531,-0.45,-3.64,8.94,0.00,-0.03,-0.01,3.50,2.75,-25.38,-0.02,0.04,0.05,-0.39,-3.64,8.98,0.57,-0.13,-0.14,0.80,12
1392570,-0.30,-3.64,8.98,0.00,-0.00,-0.00,4.06,2.19,-24.19,-0.06,0.00,-0.04,-0.39,-3.63,8.97,0.57,-0.13,-0.14,0.80,12
1392610,-0.33,-3.60,8.98,-0.00,0.02,0.02,3.62,2.75,-24.69,0.09,-0.00,0.01,-0.39,-3.63,8.97,0.57,-0.13,-0.14,0.80,12
1392650,-0.37,-3.64,8.98,-0.01,0.01,0.01,2.94,2.12,-25.38,0.06,0.03,0.01,-0.40,-3.64,8.97,0.57,-0.13,-0.14,0.80,12
1392693,-0.41,-3.64,8.94,0.01,-0.01,-0.00,3.44,2.19,-25.31,0.03,0.00,0.01,-0.40,-3.64,8.97,0.57,-0.13,-0.14,0.80,12
1392730,-0.37,-3.60,8.98,-0.00,-0.01,0.00,3.56,3.94,-25.81,-0.01,0.00,-0.03,-0.40,-3.64,8.97,0.57,-0.13,-0.14,0.80,12
1392770,-0.37,-3.64,8.98,-0.00,0.01,0.01,4.69,2.75,-23.44,0.03,0.04,0.01,-0.40,-3.63,8.96,0.57,-0.13,-0.14,0.80,12
1392810,-0.41,-3.64,8.94,0.01,-0.01,-0.01,4.94,3.12,-25.19,0.03,-0.00,0.02,-0.40,-3.63,8.96,0.57,-0.13,-0.14,0.80,12
1392853,-0.37,-3.64,8.98,0.00,-0.02,-0.02,3.81,2.50,-26.06,-0.01,-0.00,-0.02,-0.39,-3.63,8.96,0.57,-0.13,-0.14,0.80,12
1392890,-0.33,-3.64,8.98,0.00,-0.01,-0.00,4.50,2.50,-24.56,0.02,-0.00,0.02,-0.38,-3.63,8.96,0.57,-0.13,-0.14,0.80,12
1392931,-0.33,-3.64,8.98,0.00,0.01,0.00,3.62,3.62,-25.06,0.05,-0.00,0.02,-0.39,-3.63,8.96,0.57,-0.13,-0.14,0.80,12
1392971,-0.41,-3.64,8.98,0.00,-0.01,-0.00,5.44,2.56,-24.00,0.06,-0.00,0.02,-0.38,-3.62,8.97,0.57,-0.13,-0.14,0.80,12
1393013,-0.33,-3.64,8.98,0.00,-0.00,-0.00,4.88,2.56,-25.19,-0.04,-0.01,0.01,-0.38,-3.63,8.97,0.57,-0.13,-0.14,0.80,12
1393050,-0.37,-3.64,8.98,0.00,0.01,0.00,4.50,3.06,-24.88,0.04,-0.00,0.01,-0.38,-3.63,8.97,0.57,-0.13,-0.14,0.80,12
1393090,-0.41,-3.64,8.98,0.00,-0.01,-0.00,5.62,2.50,-22.94,0.01,-0.00,0.01,-0.38,-3.63,8.98,0.57,-0.13,-0.14,0.80,12
1393130,-0.37,-3.64,8.98,0.00,0.01,-0.00,4.44,2.25,-24.88,-0.03,-0.00,0.00,-0.38,-3.63,8.98,0.57,-0.13,-0.14,0.80,12
1393173,-0.45,-3.60,8.98,0.01,0.02,-0.01,4.00,2.19,-24.56,0.00,-0.00,0.00,-0.38,-3.63,8.98,0.57,-0.13,-0.14,0.80,12
1393210,-0.41,-3.56,9.02,0.01,-0.03,-0.01,4.31,2.56,-25.62,-0.07,0.03,0.00,-0.38,-3.63,8.97,0.57,-0.13,-0.14,0.80,12
1393251,-0.33,-3.60,8.98,0.00,-0.00,0.00,4.00,2.19,-24.56,-0.03,0.07,0.05,-0.38,-3.62,8.98,0.57,-0.13,-0.14,0.80,12
1393291,-0.33,-3.64,8.98,0.00,0.01,0.01,3.06,1.81,-24.25,0.05,0.02,0.00,-0.38,-3.62,8.98,0.57,-0.13,-0.14,0.80,12
1393332,-0.41,-3.64,8.98,0.01,0.01,-0.01,3.81,2.81,-26.06,0.05,-0.01,0.00,-0.38,-3.62,8.98,0.57,-0.13,-0.14,0.80,12
1393371,-0.37,-3.64,8.98,0.00,-0.07,-0.03,4.44,2.25,-24.88,-0.03,-0.02,-0.01,-0.37,-3.62,8.98,0.57,-0.13,-0.14,0.80,12
1393412,-0.26,-3.60,9.02,-0.00,0.01,-0.00,3.12,2.06,-24.31,-0.00,-0.02,0.00,-0.37,-3.62,8.98,0.57,-0.13,-0.14,0.80,12
1393452,-0.30,-3.60,8.98,-0.01,0.02,0.02,4.44,2.50,-24.88,0.11,0.02,0.03,-0.38,-3.62,8.98,0.57,-0.13,-0.14,0.80,12
1393493,-0.33,-3.64,9.02,-0.01,0.03,0.02,3.56,1.31,-26.38,0.08,0.02,-0.01,-0.38,-3.62,8.98,0.57,-0.13,-0.14,0.80,12
1393532,-0.45,-3.64,8.94,-0.00,-0.00,-0.01,3.00,2.44,-25.44,0.05,-0.01,0.03,-0.38,-3.62,8.98,0.57,-0.13,-0.14,0.80,12
1393572,-0.33,-3.60,8.98,-0.01,-0.01,0.01,4.56,1.25,-23.31,-0.07,-0.01,-0.04,-0.38,-3.63,8.98,0.57,-0.13,-0.14,0.80,12
1393612,-0.30,-3.60,9.02,-0.00,0.05,0.03,5.25,3.50,-25.94,0.05,0.03,0.00,-0.39,-3.63,8.97,0.57,-0.13,-0.14,0.80,12
1393653,-0.45,-3.60,8.94,0.00,-0.03,-0.00,4.81,1.94,-24.81,0.09,0.03,0.05,-0.39,-3.62,8.98,0.57,-0.13,-0.14,0.80,12
1393692,-0.37,-3.68,8.98,-0.00,-0.01,-0.01,2.88,3.00,-26.56,-0.06,0.02,-0.04,-0.39,-3.63,8.98,0.57,-0.13,-0.14,0.80,12
1393732,-0.37,-3.60,8.98,0.00,-0.01,-0.01,3.44,2.12,-25.00,0.02,-0.04,0.00,-0.39,-3.62,8.98,0.57,-0.13,-0.14,0.80,12
1393772,-0.37,-3.60,8.98,0.00,-0.02,-0.01,4.88,1.94,-24.44,0.02,0.02,0.00,-0.38,-3.62,8.97,0.57,-0.13,-0.14,0.80,12
1393813,-0.37,-3.64,8.98,0.00,-0.01,-0.01,4.62,3.06,-24.12,0.01,0.02,0.01,-0.38,-3.62,8.98,0.57,-0.13,-0.14,0.80,12
1393852,-0.37,-3.60,8.98,0.00,-0.01,0.00,4.50,2.50,-24.56,0.00,-0.01,0.00,-0.38,-3.62,8.98,0.57,-0.13,-0.14,0.80,12
1393892,-0.37,-3.64,8.98,-0.00,0.02,0.01,5.06,2.25,-23.69,0.00,0.02,0.00,-0.38,-3.62,8.98,0.57,-0.13,-0.14,0.80,12
1393932,-0.45,-3.60,8.98,0.00,-0.02,-0.02,2.50,2.06,-25.12,0.00,-0.01,0.00,-0.38,-3.62,8.98,0.57,-0.13,-0.14,0.80,12
1393973,-0.37,-3.60,8.98,-0.01,-0.00,0.01,5.19,2.62,-25.56,-0.07,0.02,0.00,-0.38,-3.62,8.97,0.57,-0.13,-0.14,0.80,12
1394012,-0.37,-3.33,8.52,-0.20,0.14,-0.04,4.50,3.06,-24.88,0.00,0.02,0.01,-0.38,-3.63,8.96,0.57,-0.13,-0.14,0.80,12
1394052,-0.45,-3.98,8.90,0.44,-0.14,0.03,5.44,2.25,-23.69,0.01,0.30,-0.44,-0.35,-3.58,8.98,0.57,-0.13,-0.14,0.80,12
1394092,0.09,-3.45,9.86,0.01,0.01,-0.05,2.44,3.00,-26.25,-0.10,-0.41,-0.08,-0.41,-3.62,8.97,0.57,-0.13,-0.14,0.80,12
1394133,-1.06,-3.41,8.29,0.01,0.06,-0.03,3.06,3.00,-25.44,0.50,0.17,0.89,-0.35,-3.60,8.98,0.57,-0.13,-0.14,0.80,12
1394172,-0.41,-3.71,8.14,-0.06,-0.02,0.01,5.00,3.75,-25.25,-0.71,0.19,-0.69,-0.37,-3.62,8.97,0.57,-0.13,-0.14,0.80,12
1394212,-0.26,-3.64,9.74,0.14,0.12,0.09,5.12,2.50,-23.38,-0.04,-0.09,-0.83,-0.38,-3.56,8.98,0.57,-0.13,-0.14,0.80,12
1394252,-0.56,-3.33,9.36,0.02,-0.41,-0.05,3.94,1.56,-24.56,0.12,-0.07,0.76,-0.39,-3.61,8.96,0.57,-0.13,-0.14,0.80,12
1394293,-0.75,-3.64,8.21,0.01,0.12,-0.04,4.94,3.75,-25.62,-0.17,0.28,0.40,-0.34,-3.59,8.97,0.58,-0.13,-0.14,0.80,12
1394333,-0.37,-3.83,8.90,0.09,-0.04,0.05,5.12,3.06,-24.06,-0.42,-0.04,-0.76,-0.36,-3.59,8.98,0.58,-0.13,-0.14,0.80,12
1394373,-0.45,-3.25,9.56,-0.06,0.16,0.01,4.56,2.50,-24.12,-0.01,-0.24,-0.07,-0.41,-3.59,8.97,0.57,-0.13,-0.14,0.80,12
1394413,-0.83,-3.45,8.71,0.01,-0.23,-0.03,3.69,3.31,-24.62,-0.04,0.34,0.59,-0.35,-3.60,8.97,0.57,-0.13,-0.14,0.80,12
1394453,0.05,-3.95,8.86,0.03,0.12,0.03,4.50,2.19,-24.44,-0.48,0.16,-0.26,-0.38,-3.60,8.97,0.57,-0.13,-0.14,0.80,12
1394493,-0.64,-3.41,9.32,0.01,0.06,0.01,4.50,2.19,-24.44,0.43,-0.34,-0.11,-0.40,-3.59,8.97,0.57,-0.13,-0.14,0.80,12
1394533,-0.64,-3.56,8.98,-0.04,-0.15,-0.03,4.56,2.19,-24.12,-0.24,0.18,0.36,-0.37,-3.60,8.96,0.57,-0.13,-0.14,0.80,12
1394573,-0.11,-3.75,8.71,0.06,0.07,-0.01,4.56,2.50,-24.12,-0.27,0.04,0.02,-0.36,-3.59,8.97,0.57,-0.13,-0.14,0.80,12
1394613,-0.30,-3.52,9.20,-0.02,-0.04,0.00,2.62,1.75,-24.31,0.25,-0.17,-0.26,-0.38,-3.59,8.96,0.58,-0.13,-0.14,0.80,12
1394653,-0.30,-3.68,8.90,-0.00,0.03,-0.00,2.62,1.75,-24.31,0.08,0.07,0.25,-0.37,-3.60,8.96,0.57,-0.13,-0.14,0.80,12
1394693,-0.37,-3.60,8.90,0.02,-0.04,-0.01,5.19,3.38,-23.75,0.07,-0.07,-0.06,-0.36,-3.59,8.97,0.58,-0.13,-0.14,0.80,12
1394733,-0.26,-3.60,9.14,-0.02,0.05,0.02,2.88,2.12,-25.81,-0.01,-0.01,-0.07,-0.37,-3.60,8.96,0.57,-0.13,-0.14,0.80,12
1394773,-0.49,-3.60,8.90,0.01,-0.03,-0.02,4.62,3.38,-24.56,0.11,0.00,0.17,-0.36,-3.59,8.96,0.57,-0.13,-0.14,0.80,12
1394813,-0.30,-3.64,8.98,0.00,-0.02,-0.00,3.44,1.88,-25.00,-0.13,-0.01,-0.06,-0.35,-3.59,8.96,0.58,-0.13,-0.14,0.80,12
1394853,-0.26,-3.60,9.05,0.00,0.05,0.03,4.94,2.56,-24.81,0.05,-0.04,0.02,-0.37,-3.59,8.96,0.57,-0.13,-0.14,0.80,12
1394893,-0.49,-3.60,8.98,-0.00,-0.03,-0.01,4.44,2.25,-24.88,0.11,-0.01,0.09,-0.37,-3.60,8.96,0.57,-0.13,-0.14,0.80,12
1394933,-0.41,-3.64,8.94,0.01,0.01,-0.00,5.06,3.12,-24.44,-0.12,0.00,0.02,-0.37,-3.59,8.97,0.57,-0.13,-0.14,0.80,12
1394973,-0.33,-3.60,8.98,-0.01,0.01,0.01,3.44,2.75,-25.75,-0.04,-0.04,-0.03,-0.36,-3.61,9.00,0.57,-0.13,-0.14,0.80,12
1395013,-0.41,-3.60,8.98,0.00,0.01,0.00,4.94,2.25,-24.44,0.03,0.01,-0.02,-0.37,-3.60,9.00,0.57,-0.13,-0.14,0.80,12
1395053,-0.45,-3.60,8.94,0.01,-0.03,-0.01,5.81,2.31,-24.38,-0.04,0.00,-0.02,-0.36,-3.60,9.00,0.57,-0.13,-0.14,0.80,12
1395093,-0.33,-3.60,9.02,-0.00,0.00,-0.00,4.31,1.94,-25.19,-0.09,0.00,-0.06,-0.37,-3.60,8.99,0.57,-0.13,-0.14,0.80,12
1395133,-0.41,-3.60,8.94,0.01,-0.02,-0.01,3.38,1.88,-25.31,0.04,0.00,0.02,-0.36,-3.60,8.99,0.57,-0.13,-0.14,0.80,12
1395173,-0.33,-3.60,9.02,0.01,-0.01,-0.01,3.69,2.12,-23.44,-0.05,0.00,-0.05,-0.37,-3.60,8.99,0.58,-0.13,-0.14,0.80,12
1395213,-0.30,-3.60,9.02,0.00,0.02,0.01,4.12,3.31,-24.56,0.04,0.00,0.02,-0.37,-3.60,8.99,0.58,-0.13,-0.14,0.80,12
1395253,-0.41,-3.60,8.98,-0.00,-0.02,-0.01,3.75,1.94,-26.06,0.07,0.00,0.02,-0.36,-3.60,8.99,0.58,-0.13,-0.14,0.80,12
1395293,-0.30,-3.60,8.98,0.01,0.01,0.00,4.75,2.56,-25.94,-0.05,0.00,-0.02,-0.37,-3.60,8.98,0.58,-0.13,-0.14,0.80,12
1395334,-0.37,-3.56,9.02,0.00,-0.00,0.01,4.56,1.88,-23.75,0.07,0.00,-0.01,-0.37,-3.60,8.98,0.58,-0.13,-0.14,0.80,12
1395374,-0.37,-3.60,8.98,-0.01,-0.00,-0.01,4.38,1.31,-24.44,-0.00,0.04,0.03,-0.37,-3.60,8.99,0.58,-0.13,-0.14,0.80,12
1395415,-0.41,-3.64,8.90,0.01,-0.02,-0.01,5.19,3.19,-25.94,-0.00,0.00,-0.02,-0.36,-3.59,8.98,0.58,-0.13,-0.14,0.80,12
1395454,-0.37,-3.56,9.05,-0.00,0.02,0.01,3.38,1.88,-25.31,-0.05,-0.04,-0.08,-0.36,-3.60,8.98,0.58,-0.13,-0.14,0.80,12
1395495,-0.41,-3.64,8.94,-0.01,-0.01,0.00,3.25,2.69,-23.94,-0.01,0.04,0.08,-0.36,-3.59,8.98,0.58,-0.13,-0.14,0.80,12
1395535,-0.33,-3.64,8.86,0.01,0.01,-0.01,4.62,1.88,-23.31,-0.05,-0.04,-0.04,-0.36,-3.60,8.98,0.58,-0.13,-0.14,0.80,12
1395575,-0.33,-3.56,9.05,-0.00,0.01,0.01,4.81,1.94,-25.19,0.03,-0.04,-0.11,-0.36,-3.60,8.98,0.58,-0.13,-0.14,0.80,12
1395614,-0.41,-3.60,8.94,-0.00,-0.00,-0.00,4.06,2.50,-24.56,0.03,0.04,0.08,-0.37,-3.60,8.98,0.58,-0.13,-0.14,0.80,12
1395655,-0.30,-3.60,8.90,0.01,-0.01,-0.00,4.12,2.44,-23.81,-0.04,0.00,-0.04,-0.36,-3.60,8.98,0.58,-0.13,-0.14,0.80,12
1395695,-0.30,-3.64,9.02,-0.00,0.03,0.02,3.50,2.44,-25.00,0.06,0.00,-0.08,-0.37,-3.60,8.98,0.58,-0.13,-0.14,0.80,12
1395735,-0.41,-3.56,9.05,-0.01,-0.00,0.00,3.88,2.81,-25.69,0.07,-0.04,0.04,-0.37,-3.60,8.98,0.57,-0.13,-0.14,0.80,12
1395774,-0.33,-3.64,8.94,0.00,-0.01,-0.00,3.44,1.88,-25.00,-0.04,0.04,0.08,-0.37,-3.60,8.98,0.57,-0.13,-0.14,0.80,12
1395815,-0.30,-3.64,9.02,0.00,0.03,0.01,5.00,2.56,-24.44,0.04,-0.04,-0.04,-0.37,-3.60,8.98,0.57,-0.13,-0.14,0.80,12
1395855,-0.45,-3.56,9.02,-0.00,-0.02,-0.01,5.94,3.19,-24.31,0.07,-0.04,0.04,-0.37,-3.60,8.98,0.57,-0.13,-0.14,0.80,12
1395895,-0.37,-3.60,8.94,0.00,-0.01,-0.00,3.31,2.50,-26.12,-0.08,0.04,0.04,-0.37,-3.61,8.98,0.57,-0.13,-0.14,0.80,12
1395935,-0.37,-3.56,9.02,0.01,0.01,0.00,4.25,2.56,-26.00,-0.00,0.01,-0.04,-0.37,-3.60,8.98,0.57,-0.13,-0.14,0.80,12
1395974,-0.41,-3.56,9.02,-0.00,-0.02,-0.00,4.12,3.00,-24.56,-0.00,0.04,0.04,-0.36,-3.60,8.98,0.57,-0.13,-0.14,0.80,12
1396015,-0.33,-3.64,8.94,0.00,0.00,0.01,4.31,3.31,-23.44,-0.05,0.04,0.04,-0.36,-3.60,8.98,0.57,-0.13,-0.14,0.80,12
1396055,-0.33,-3.64,8.98,0.00,0.01,0.00,4.88,3.44,-25.56,0.03,-0.04,-0.04,-0.37,-3.60,8.98,0.57,-0.13,-0.14,0.80,12
1396095,-0.41,-3.60,9.02,0.00,-0.01,-0.01,4.81,2.88,-25.56,0.04,-0.04,0.00,-0.37,-3.60,8.98,0.57,-0.13,-0.14,0.80,12
1396134,-0.33,-3.64,8.98,0.01,-0.01,-0.01,5.62,3.12,-23.25,-0.04,0.00,0.03,-0.36,-3.60,8.98,0.57,-0.13,-0.14,0.80,12
1396175,-0.37,-3.60,8.98,0.01,-0.01,-0.01,4.62,3.06,-24.12,0.03,-0.04,-0.01,-0.36,-3.60,8.98,0.57,-0.13,-0.14,0.80,12
1396215,-0.41,-3.60,8.98,0.00,-0.02,-0.01,4.75,2.25,-25.56,-0.01,0.00,-0.01,-0.36,-3.60,8.98,0.58,-0.13,-0.14,0.80,12
1396256,-0.33,-3.60,8.98,0.00,-0.00,-0.01,6.06,1.44,-25.00,-0.05,0.00,-0.01,-0.36,-3.60,8.98,0.58,-0.13,-0.14,0.80,12
1396294,-0.33,-3.60,8.98,-0.00,-0.01,-0.00,4.50,2.50,-24.50,0.03,0.00,-0.01,-0.36,-3.60,8.98,0.58,-0.13,-0.14,0.80,12
1396335,-0.33,-3.60,8.98,0.00,0.01,0.00,4.88,2.56,-25.19,0.03,0.00,-0.01,-0.36,-3.60,8.98,0.58,-0.13,-0.14,0.80,12
1396375,-0.37,-3.56,8.98,0.00,-0.01,0.00,3.62,2.75,-24.62,0.03,0.00,-0.01,-0.36,-3.60,8.98,0.58,-0.13,-0.14,0.80,12
1396417,-0.33,-3.60,8.98,0.00,0.01,0.01,2.94,2.75,-25.81,-0.01,0.04,-0.01,-0.36,-3.60,8.98,0.58,-0.13,-0.14,0.80,12
1396456,-0.33,-3.60,8.98,-0.01,0.00,0.00,5.31,2.56,-24.75,0.03,0.00,0.00,-0.36,-3.60,8.98,0.58,-0.13,-0.14,0.80,12
1396496,-0.33,-3.60,8.98,-0.00,0.02,0.01,3.94,1.56,-24.50,0.03,0.00,0.00,-0.36,-3.60,8.98,0.57,-0.13,-0.14,0.80,12
1396536,-0.41,-3.60,8.98,-0.00,-0.00,-0.00,6.25,2.06,-24.25,0.03,0.00,0.00,-0.35,-3.60,8.98,0.57,-0.13,-0.14,0.80,12
1396579,-0.37,-3.60,9.02,0.01,-0.02,-0.01,4.94,2.25,-24.44,-0.06,0.00,-0.01,-0.36,-3.60,8.98,0.58,-0.13,-0.14,0.80,12
1396616,-0.33,-3.60,9.02,0.00,-0.00,-0.01,5.19,2.00,-25.12,-0.01,0.00,0.04,-0.35,-3.60,8.98,0.58,-0.13,-0.14,0.80,12
1396656,-0.37,-3.60,8.98,-0.00,-0.02,-0.01,4.50,2.81,-24.88,0.02,0.00,0.04,-0.34,-3.60,8.98,0.58,-0.13,-0.14,0.80,12
1396696,-0.33,-3.60,8.98,-0.00,0.01,0.00,3.31,2.19,-25.75,-0.03,0.00,-0.01,-0.34,-3.60,8.98,0.58,-0.13,-0.14,0.80,12
1396739,-0.33,-3.60,8.98,-0.00,0.00,0.01,3.38,1.88,-25.31,0.01,0.00,-0.01,-0.35,-3.60,8.98,0.58,-0.13,-0.14,0.80,12
1396776,-0.37,-3.60,8.98,0.00,-0.00,-0.01,4.44,2.25,-24.88,0.02,0.00,-0.01,-0.35,-3.60,8.98,0.58,-0.13,-0.14,0.80,12
1396816,-0.33,-3.60,8.98,0.00,-0.01,0.01,2.62,1.75,-24.31,-0.02,0.00,-0.01,-0.34,-3.60,8.98,0.58,-0.13,-0.14,0.80,12
1396856,-0.26,-3.60,9.02,-0.01,0.04,0.02,4.94,3.12,-25.19,0.01,0.00,-0.01,-0.36,-3.60,8.98,0.57,-0.13,-0.14,0.80,12
1396899,-0.41,-3.60,8.94,0.00,-0.01,0.00,4.94,3.12,-25.19,0.10,0.00,0.03,-0.37,-3.60,8.98,0.57,-0.13,-0.14,0.80,12
1396936,-0.30,-3.60,9.02,0.00,0.00,0.01,3.44,0.69,-24.19,-0.04,0.00,-0.04,-0.36,-3.60,8.98,0.57,-0.13,-0.14,0.80,12
1396976,-0.30,-3.60,9.02,-0.01,0.04,0.03,4.50,2.50,-24.50,0.06,0.00,0.03,-0.38,-3.60,8.98,0.57,-0.13,-0.14,0.80,12
1397016,-0.45,-3.60,8.94,0.00,0.00,0.00,3.56,2.75,-25.00,0.08,0.00,0.04,-0.38,-3.60,8.98,0.57,-0.13,-0.14,0.80,12
1397057,-0.49,-3.64,8.94,0.00,-0.03,-0.03,3.88,1.88,-24.94,-0.07,0.00,-0.04,-0.37,-3.60,8.98,0.57,-0.13,-0.14,0.80,12
1397096,-0.30,-3.60,8.98,-0.00,-0.02,-0.02,4.88,2.25,-24.81,-0.12,-0.04,-0.04,-0.37,-3.61,8.98,0.57,-0.13,-0.14,0.80,12
1397136,-0.33,-3.60,8.94,0.01,-0.01,-0.01,5.56,3.12,-23.69,0.07,0.01,0.00,-0.36,-3.61,8.98,0.57,-0.13,-0.14,0.80,12
1397176,-0.37,-3.56,8.98,0.00,-0.03,-0.01,4.81,1.31,-24.38,0.03,0.01,-0.04,-0.35,-3.60,8.98,0.58,-0.13,-0.14,0.80,12
1397217,-0.26,-3.60,9.02,0.00,0.02,0.01,3.75,1.88,-25.69,-0.02,0.04,0.00,-0.35,-3.60,8.98,0.58,-0.13,-0.14,0.80,12
1397256,-0.37,-3.60,8.98,-0.00,0.02,0.01,3.44,2.19,-25.31,0.09,0.00,0.04,-0.35,-3.61,8.98,0.57,-0.13,-0.14,0.80,12
1397296,-0.41,-3.64,8.98,-0.00,0.01,0.00,3.69,2.75,-24.25,-0.02,0.01,0.00,-0.35,-3.60,8.98,0.57,-0.13,-0.14,0.80,12
1397336,-0.41,-3.60,8.98,-0.00,-0.01,-0.00,4.25,2.88,-26.38,-0.06,-0.04,0.00,-0.36,-3.61,8.98,0.57,-0.13,-0.14,0.80,12
1397377,-0.33,-3.60,8.98,0.00,0.01,0.00,4.88,2.25,-24.81,-0.05,0.01,0.00,-0.36,-3.61,8.98,0.57,-0.13,-0.14,0.80,12
1397416,-0.37,-3.60,9.02,0.00,-0.01,-0.00,4.25,2.56,-26.00,0.03,0.01,0.00,-0.35,-3.61,8.98,0.57,-0.13,-0.14,0.80,12
1397457,-0.37,-3.60,8.98,0.00,-0.01,-0.01,5.06,2.56,-24.06,-0.02,0.01,0.04,-0.36,-3.61,8.98,0.57,-0.13,-0.14,0.80,12
1397497,-0.33,-3.60,8.98,0.00,-0.00,0.01,4.44,2.81,-25.25,-0.01,0.01,0.00,-0.36,-3.61,8.98,0.57,-0.13,-0.14,0.80,12
1397538,-0.30,-3.60,8.98,0.00,0.01,0.00,4.06,2.75,-24.56,0.03,0.01,-0.01,-0.35,-3.60,8.98,0.57,-0.13,-0.14,0.80,12
1397577,-0.37,-3.60,8.98,0.00,-0.02,-0.01,5.19,2.94,-25.56,0.05,0.00,-0.01,-0.34,-3.60,8.98,0.57,-0.13,-0.14,0.80,12
1397617,-0.30,-3.60,8.98,0.00,0.01,0.00,4.44,2.25,-24.88,-0.03,0.00,-0.01,-0.35,-3.60,8.98,0.57,-0.13,-0.14,0.80,12
1397657,-0.33,-3.60,9.02,-0.01,0.01,0.01,3.25,1.88,-26.06,0.05,0.00,-0.01,-0.35,-3.60,8.98,0.57,-0.13,-0.14,0.80,12
1397698,-0.37,-3.60,8.94,0.00,0.00,0.00,4.88,2.25,-24.81,0.02,0.00,0.03,-0.35,-3.61,8.98,0.57,-0.13,-0.14,0.80,12
1397737,-0.41,-3.60,9.02,0.01,-0.01,-0.00,3.81,1.56,-25.25,-0.02,0.01,-0.04,-0.34,-3.60,8.98,0.57,-0.13,-0.14,0.80,12
1397777,-0.26,-3.64,8.98,-0.00,0.01,0.01,3.06,1.81,-24.25,-0.07,0.00,0.04,-0.36,-3.60,8.98,0.57,-0.13,-0.14,0.80,12
1397817,-0.33,-3.60,8.94,0.01,0.02,0.00,2.69,3.25,-25.12,0.10,-0.04,-0.01,-0.36,-3.60,8.98,0.57,-0.13,-0.14,0.80,12
1397858,-0.41,-3.60,8.98,0.00,-0.02,-0.01,4.00,2.50,-24.94,0.03,0.00,-0.04,-0.35,-3.61,8.98,0.57,-0.13,-0.14,0.80,12
1397897,-0.26,-3.60,8.98,-0.01,0.01,0.00,4.56,2.19,-23.75,-0.06,0.01,0.00,-0.35,-3.61,8.97,0.57,-0.13,-0.14,0.80,12
1397938,-0.33,-3.64,8.94,0.00,0.02,0.01,3.88,1.56,-24.94,0.09,0.01,0.01,-0.36,-3.61,8.97,0.57,-0.13,-0.14,0.80,12
1397977,-0.41,-3.60,8.98,0.00,-0.01,-0.01,4.62,2.81,-24.12,0.03,-0.03,-0.03,-0.36,-3.61,8.97,0.57,-0.13,-0.14,0.80,12
1398018,-0.41,-3.60,8.98,-0.00,-0.01,-0.01,4.38,2.56,-25.25,-0.05,0.01,0.01,-0.35,-3.61,8.98,0.57,-0.13,-0.14,0.80,12
1398058,-0.30,-3.60,8.98,0.00,-0.01,-0.00,4.88,2.25,-24.81,-0.06,0.01,0.00,-0.34,-3.61,8.98,0.57,-0.13,-0.14,0.80,12
1398098,-0.33,-3.60,8.98,0.00,-0.00,0.00,4.12,2.75,-24.19,0.05,0.01,0.00,-0.35,-3.61,8.98,0.57,-0.13,-0.14,0.80,12
1398138,-0.33,-3.56,9.02,-0.01,-0.00,0.01,2.56,1.44,-24.31,0.02,0.01,0.00,-0.34,-3.60,8.98,0.57,-0.13,-0.14,0.80,12
1398179,-0.30,-3.60,8.98,-0.01,0.02,0.02,4.94,1.75,-26.19,0.01,0.04,0.04,-0.35,-3.61,8.98,0.57,-0.13,-0.14,0.80,12
1398218,-0.45,-3.64,8.98,0.00,0.01,0.01,4.12,2.75,-24.19,0.05,0.01,0.00,-0.35,-3.61,8.98,0.57,-0.13,-0.14,0.80,12
1398258,-0.41,-3.60,8.98,0.00,-0.02,-0.01,5.38,2.88,-24.44,-0.10,-0.03,0.00,-0.36,-3.61,8.98,0.57,-0.13,-0.14,0.80,12
1398298,-0.30,-3.60,8.98,0.00,0.00,0.00,3.38,2.50,-25.75,-0.05,0.01,0.00,-0.35,-3.61,8.98,0.57,-0.13,-0.14,0.80,12
1398338,-0.33,-3.64,8.98,0.00,0.00,-0.01,4.31,1.62,-24.88,0.05,0.01,0.00,-0.36,-3.61,8.98,0.57,-0.13,-0.14,0.80,12
1398377,-0.33,-3.60,8.98,0.00,-0.03,-0.01,4.31,1.62,-24.88,0.03,-0.03,0.00,-0.34,-3.61,8.98,0.57,-0.13,-0.14,0.80,12
1398418,-0.30,-3.64,8.98,0.00,0.01,-0.00,4.75,3.38,-23.81,0.01,0.01,0.00,-0.34,-3.61,8.98,0.57,-0.13,-0.14,0.80,12
1398458,-0.37,-3.60,8.98,0.01,-0.01,-0.00,4.06,3.06,-24.94,0.05,-0.03,0.00,-0.34,-3.61,8.98,0.57,-0.13,-0.14,0.80,12
1398499,-0.33,-3.60,8.98,-0.00,-0.00,-0.00,3.50,2.44,-25.00,-0.03,0.01,0.00,-0.34,-3.60,8.98,0.57,-0.13,-0.14,0.80,12
1398538,-0.33,-3.60,9.02,-0.00,-0.00,0.00,4.44,2.25,-24.88,0.00,0.00,0.00,-0.34,-3.60,8.98,0.57,-0.13,-0.14,0.80,12
1398579,-0.30,-3.64,8.98,0.00,0.02,0.01,4.12,2.44,-23.81,0.00,0.00,0.04,-0.34,-3.61,8.98,0.57,-0.13,-0.14,0.80,12
1398619,-0.37,-3.64,8.98,0.01,0.00,0.00,4.31,1.94,-25.19,0.04,-0.03,0.00,-0.34,-3.61,8.98,0.57,-0.13,-0.14,0.80,12
1398659,-0.37,-3.60,9.02,-0.01,-0.00,0.00,4.25,2.25,-26.00,-0.03,-0.03,0.00,-0.34,-3.61,8.98,0.57,-0.13,-0.14,0.80,12
1398698,-0.37,-3.60,8.98,0.00,-0.00,0.00,3.19,1.88,-26.44,-0.03,0.01,0.03,-0.34,-3.62,8.98,0.57,-0.13,-0.14,0.80,12
1398739,-0.33,-3.64,8.98,-0.00,-0.00,0.00,5.00,2.25,-24.06,-0.03,0.02,-0.01,-0.34,-3.61,8.98,0.57,-0.13,-0.14,0.80,12
1398779,-0.33,-3.60,8.98,-0.01,0.00,0.00,2.44,2.38,-25.88,0.01,-0.03,-0.01,-0.35,-3.61,8.98,0.57,-0.13,-0.14,0.80,12
1398819,-0.37,-3.60,8.98,-0.01,-0.01,-0.00,5.12,3.38,-24.12,0.02,0.01,-0.01,-0.35,-3.62,8.98,0.57,-0.13,-0.14,0.80,12
1398859,-0.22,-3.68,8.98,-0.01,0.04,0.03,4.44,2.81,-25.25,-0.02,0.02,-0.01,-0.36,-3.62,8.98,0.57,-0.13,-0.14,0.80,12
1398899,-0.52,-3.60,8.98,-0.02,0.03,0.00,5.94,2.00,-23.19,0.14,-0.05,0.00,-0.38,-3.63,8.98,0.57,-0.13,-0.14,0.80,12
1398939,-0.45,-3.60,8.94,-0.01,-0.04,-0.01,4.81,1.31,-24.44,-0.15,0.03,0.00,-0.37,-3.63,8.98,0.57,-0.13,-0.14,0.80,12
1398979,-0.26,-3.68,8.98,0.01,0.03,0.00,5.31,2.00,-24.44,-0.08,0.03,-0.04,-0.38,-3.63,8.98,0.57,-0.13,-0.14,0.80,12
1399019,-0.37,-3.64,8.98,-0.01,-0.02,-0.01,3.31,1.88,-25.75,0.12,-0.04,0.00,-0.37,-3.63,8.98,0.57,-0.13,-0.14,0.80,12
1399059,-0.33,-3.68,8.94,0.01,0.01,-0.00,5.31,1.62,-24.00,-0.00,-0.00,0.00,-0.37,-3.64,8.98,0.57,-0.13,-0.14,0.80,12
1399099,-0.37,-3.64,8.98,-0.00,-0.01,-0.01,4.56,2.50,-24.12,0.04,-0.04,-0.04,-0.37,-3.65,8.98,0.57,-0.13,-0.14,0.80,12
1399139,-0.37,-3.64,8.98,-0.00,-0.02,-0.01,4.06,2.19,-24.19,-0.00,0.01,0.00,-0.36,-3.65,8.98,0.57,-0.13,-0.14,0.80,12
1399179,-0.30,-3.68,8.98,-0.01,0.01,0.01,4.38,1.62,-24.44,-0.01,0.01,0.00,-0.36,-3.64,8.97,0.57,-0.13,-0.14,0.80,12
1399219,-0.33,-3.64,8.98,-0.01,0.02,0.01,5.88,2.31,-23.94,0.06,-0.04,0.01,-0.36,-3.65,8.97,0.57,-0.13,-0.14,0.80,12
1399259,-0.41,-3.60,8.98,-0.01,-0.01,0.00,3.12,2.38,-24.31,0.03,0.01,0.01,-0.36,-3.66,8.96,0.57,-0.13,-0.14,0.80,12
1399299,-0.33,-3.68,8.94,-0.01,0.01,0.01,4.00,3.06,-25.31,-0.05,0.05,0.02,-0.36,-3.66,8.96,0.57,-0.13,-0.14,0.80,12
1399339,-0.37,-3.64,8.98,-0.03,0.03,0.02,4.06,2.50,-24.56,0.03,-0.02,-0.02,-0.37,-3.67,8.96,0.57,-0.13,-0.14,0.80,12
1399379,-0.45,-3.68,8.90,-0.03,0.01,-0.01,4.56,2.81,-24.50,-0.00,0.04,0.02,-0.37,-3.68,8.96,0.57,-0.13,-0.14,0.80,12
1399419,-0.33,-3.68,8.94,-0.01,-0.00,0.00,5.75,2.62,-24.75,-0.08,0.00,-0.06,-0.38,-3.68,8.95,0.57,-0.13,-0.15,0.80,12
1399459,-0.18,-3.71,9.02,-0.00,0.10,0.03,6.06,1.19,-24.62,0.04,0.00,-0.01,-0.40,-3.69,8.95,0.57,-0.13,-0.14,0.80,12
1399500,-0.52,-3.64,8.94,-0.01,-0.03,-0.02,3.88,1.56,-24.94,0.22,-0.03,0.06,-0.39,-3.69,8.95,0.57,-0.13,-0.14,0.80,12
1399540,-0.30,-3.71,8.90,0.01,-0.03,-0.02,4.12,2.44,-23.81,-0.13,0.05,-0.01,-0.38,-3.69,8.95,0.57,-0.13,-0.15,0.80,12
1399580,-0.26,-3.71,8.98,-0.00,0.04,0.02,4.25,3.94,-24.25,0.08,-0.03,-0.05,-0.38,-3.68,8.95,0.57,-0.13,-0.15,0.80,12
1399620,-0.41,-3.68,8.98,-0.02,0.01,-0.00,4.56,2.81,-24.56,0.12,-0.04,0.03,-0.39,-3.69,8.95,0.57,-0.13,-0.14,0.80,12
1399660,-0.33,-3.71,8.94,-0.04,-0.04,-0.01,4.44,1.88,-24.44,-0.02,0.01,0.03,-0.38,-3.70,8.95,0.57,-0.13,-0.15,0.80,12
1399700,-0.22,-3.71,8.98,-0.04,0.05,0.03,4.19,3.00,-24.19,0.05,-0.01,-0.01,-0.38,-3.72,8.95,0.57,-0.13,-0.15,0.80,12
1399740,-0.41,-3.68,9.02,-0.08,0.06,0.02,5.56,2.56,-23.25,0.16,0.00,0.03,-0.41,-3.74,8.92,0.57,-0.13,-0.15,0.80,12
1399780,-0.64,-3.75,8.94,-0.22,-0.00,-0.06,4.06,3.38,-25.00,-0.00,0.07,0.09,-0.40,-3.80,8.91,0.57,-0.13,-0.15,0.79,12
1399821,0.12,-3.91,8.98,-0.25,-0.17,-0.07,3.50,2.44,-25.00,-0.24,0.04,0.03,-0.35,-3.88,8.88,0.57,-0.14,-0.15,0.79,12
1401574,-6.20,-2.30,6.87,-0.08,-0.12,-0.07,35.88,1.75,-16.12,-0.23,0.28,-0.27,-5.96,-2.58,7.14,0.47,-0.36,0.04,0.81,12
1401614,-6.00,-2.45,7.03,-0.09,-0.08,-0.09,35.56,0.19,-14.38,-0.08,0.18,-0.13,-5.92,-2.62,7.16,0.47,-0.36,0.04,0.81,12
1401656,-6.04,-2.53,7.02,-0.07,-0.07,-0.06,35.44,1.12,-15.50,-0.11,0.13,-0.10,-5.89,-2.66,7.16,0.47,-0.36,0.04,0.81,12
1401695,-5.96,-2.53,7.02,-0.07,-0.12,-0.07,36.00,1.69,-15.44,-0.10,0.16,-0.15,-5.87,-2.69,7.17,0.47,-0.36,0.03,0.81,12
1401734,-5.81,-2.68,7.10,-0.05,-0.05,-0.01,35.44,1.12,-15.50,0.02,0.04,-0.09,-5.84,-2.72,7.19,0.47,-0.35,0.03,0.81,12
1401774,-5.73,-2.76,7.21,0.00,0.06,0.01,36.31,1.19,-15.75,0.11,-0.04,0.04,-5.84,-2.72,7.18,0.47,-0.36,0.03,0.81,12
1401816,-6.08,-2.57,6.98,-0.01,-0.00,-0.02,36.06,2.31,-15.50,-0.04,0.11,-0.11,-5.85,-2.72,7.17,0.47,-0.36,0.03,0.81,12
1401856,-5.93,-2.61,7.07,-0.04,-0.06,-0.01,36.12,2.31,-15.06,-0.08,0.12,-0.11,-5.84,-2.73,7.17,0.47,-0.36,0.03,0.81,12
1401894,-5.81,-2.68,7.14,-0.02,0.04,0.01,35.56,1.69,-15.12,0.02,0.05,-0.03,-5.84,-2.73,7.17,0.47,-0.36,0.03,0.81,12
1401934,-5.93,-2.68,7.07,-0.00,0.02,-0.01,35.81,0.56,-15.75,-0.07,0.05,-0.10,-5.85,-2.73,7.16,0.47,-0.36,0.03,0.81,12
1401976,-5.93,-2.64,7.02,-0.04,-0.02,-0.00,35.12,1.38,-15.56,-0.16,0.17,-0.17,-5.84,-2.73,7.16,0.47,-0.36,0.03,0.81,12
1402016,-5.85,-2.76,7.14,-0.02,0.03,0.01,36.88,1.56,-15.69,-0.01,-0.02,-0.02,-5.84,-2.74,7.16,0.47,-0.36,0.03,0.81,12
1402054,-5.85,-2.68,7.10,-0.01,0.04,0.01,35.88,0.88,-15.44,0.01,0.05,-0.04,-5.86,-2.73,7.14,0.47,-0.36,0.03,0.81,12
1402094,-6.00,-2.61,6.99,-0.02,-0.03,-0.02,36.44,1.50,-15.38,-0.14,0.14,-0.15,-5.86,-2.74,7.14,0.47,-0.36,0.03,0.81,12
1402137,-5.81,-2.72,7.11,-0.03,-0.03,0.00,35.50,0.19,-14.69,-0.11,0.02,-0.09,-5.90,-2.66,7.08,0.47,-0.36,0.03,0.81,12
1402176,-5.85,-2.72,7.07,0.00,0.06,0.00,35.50,2.31,-16.25,0.05,-0.06,0.00,-5.91,-2.66,7.06,0.47,-0.36,0.03,0.81,12
1402215,-6.04,-2.61,6.95,-0.00,-0.03,-0.03,35.38,1.31,-14.00,-0.14,0.06,-0.11,-5.91,-2.66,7.06,0.47,-0.36,0.03,0.81,12
1402255,-6.00,-2.64,7.03,-0.00,-0.06,-0.02,35.81,0.56,-15.75,-0.11,0.03,-0.05,-5.89,-2.67,7.07,0.47,-0.36,0.03,0.81,12
1402298,-5.81,-2.72,7.11,0.00,0.04,0.01,36.56,0.88,-14.25,0.09,-0.05,0.04,-5.90,-2.67,7.06,0.47,-0.36,0.03,0.81,12
1402337,-5.96,-2.64,6.99,-0.00,0.02,0.00,36.31,0.88,-15.69,-0.06,0.04,-0.07,-5.91,-2.68,7.05,0.47,-0.36,0.03,0.81,12
1402375,-5.96,-2.68,6.99,-0.00,-0.04,-0.01,35.62,1.94,-15.12,-0.06,0.00,-0.07,-5.91,-2.68,7.05,0.47,-0.36,0.03,0.81,12
1402416,-5.89,-2.72,7.02,0.00,0.00,0.01,33.69,0.69,-15.31,0.01,-0.04,-0.03,-5.90,-2.68,7.05,0.47,-0.36,0.03,0.81,12
1402458,-5.93,-2.68,7.07,0.00,0.07,0.02,35.62,1.38,-14.75,0.14,-0.08,0.10,-5.91,-2.68,7.04,0.47,-0.36,0.03,0.81,12
1402498,-6.04,-2.61,6.99,-0.00,-0.01,-0.01,34.81,2.19,-15.25,-0.12,0.07,-0.04,-5.92,-2.68,7.03,0.47,-0.36,0.03,0.81,12
1402536,-5.96,-2.68,6.99,-0.00,-0.06,-0.02,35.50,1.12,-15.06,-0.06,0.01,-0.06,-5.91,-2.69,7.05,0.47,-0.36,0.03,0.81,12
1402576,-5.81,-2.72,7.14,0.00,0.04,0.02,33.69,1.56,-16.06,0.10,-0.04,0.10,-5.91,-2.68,7.04,0.47,-0.36,0.03,0.81,12
1402618,-6.04,-2.64,6.95,0.00,0.04,0.01,35.56,1.69,-15.12,0.07,-0.04,0.07,-5.92,-2.68,7.03,0.47,-0.36,0.03,0.81,12
1402658,-5.96,-2.68,6.99,0.01,-0.06,-0.02,34.75,1.00,-14.50,-0.11,0.04,-0.09,-5.93,-2.68,7.04,0.47,-0.36,0.03,0.81,12
1402696,-5.89,-2.72,7.02,0.01,-0.01,0.00,35.25,1.62,-14.81,0.04,-0.04,-0.02,-5.92,-2.68,7.04,0.47,-0.36,0.03,0.81,12
1402736,-5.81,-2.76,7.11,0.13,-0.01,-0.02,35.69,1.62,-14.38,0.11,-0.09,0.06,-5.92,-2.67,7.04,0.47,-0.36,0.03,0.81,12
1402778,-5.96,-2.49,6.95,0.11,-0.04,-0.02,34.25,2.19,-15.69,-0.01,-0.12,0.07,-5.91,-2.63,7.07,0.47,-0.36,0.04,0.81,12
1402818,-5.96,-2.57,7.06,0.00,-0.03,-0.01,35.19,1.62,-14.81,-0.07,0.14,-0.13,-5.90,-2.62,7.08,0.47,-0.36,0.04,0.81,12
1402856,-5.89,-2.61,7.14,-0.02,-0.01,-0.00,37.00,1.50,-14.94,0.00,0.03,0.05,-5.89,-2.63,7.09,0.47,-0.36,0.04,0.81,12
1402896,-5.89,-2.68,7.10,-0.01,0.01,0.00,35.19,1.38,-14.38,0.00,-0.05,0.02,-5.89,-2.62,7.09,0.47,-0.36,0.04,0.81,12
1402938,-5.93,-2.64,7.07,-0.01,-0.01,-0.01,35.19,1.62,-15.12,0.04,0.03,-0.06,-5.89,-2.63,7.09,0.47,-0.36,0.04,0.81,12
1402978,-5.89,-2.61,7.10,-0.03,-0.01,0.00,36.00,2.00,-15.44,-0.04,0.00,-0.02,-5.89,-2.64,7.08,0.47,-0.36,0.04,0.81,12
1403016,-5.81,-2.72,7.14,0.01,0.01,0.01,35.12,1.06,-15.12,0.08,-0.07,0.05,-5.89,-2.65,7.09,0.47,-0.36,0.04,0.81,12
1403056,-5.89,-2.64,7.06,-0.00,0.02,0.00,36.12,1.69,-14.69,0.01,0.00,-0.02,-5.90,-2.64,7.08,0.47,-0.36,0.04,0.81,12
1403098,-5.89,-2.61,7.06,-0.02,-0.03,-0.01,36.56,1.44,-14.62,-0.07,0.04,-0.05,-5.89,-2.65,7.08,0.47,-0.36,0.04,0.81,12
1403138,-5.81,-2.68,7.14,-0.00,0.00,0.00,36.56,1.12,-14.19,0.00,0.02,-0.01,-5.89,-2.62,7.07,0.47,-0.36,0.04,0.81,12
1403176,-5.85,-2.64,7.10,-0.00,0.05,0.01,35.62,1.62,-14.75,0.05,-0.02,0.03,-5.90,-2.62,7.07,0.47,-0.36,0.04,0.81,12
1403216,-5.96,-2.61,7.03,-0.01,-0.03,-0.01,37.12,0.56,-13.44,-0.07,0.03,-0.04,-5.90,-2.63,7.06,0.47,-0.36,0.04,0.81,12
1403259,-5.89,-2.68,7.06,-0.01,-0.04,-0.03,37.06,1.75,-14.56,-0.07,0.00,-0.05,-5.89,-2.64,7.07,0.47,-0.36,0.04,0.81,12
1403298,-5.81,-2.72,7.14,0.01,-0.01,-0.00,35.56,1.06,-14.75,-0.00,-0.04,-0.02,-5.88,-2.64,7.08,0.47,-0.36,0.04,0.81,12
1403336,-5.89,-2.61,7.03,-0.01,-0.03,-0.02,35.75,0.56,-16.12,-0.01,0.04,-0.05,-5.88,-2.65,7.08,0.47,-0.36,0.04,0.81,12
1403376,-5.89,-2.68,7.10,0.00,-0.04,-0.04,35.19,3.19,-16.31,-0.03,-0.02,0.02,-5.86,-2.66,7.09,0.47,-0.36,0.04,0.81,12
1403418,-5.77,-2.68,7.14,-0.01,-0.07,-0.04,34.69,0.44,-14.38,-0.04,0.03,-0.04,-5.84,-2.67,7.10,0.47,-0.36,0.03,0.81,12
1403458,-5.70,-2.76,7.21,0.01,0.01,0.00,36.44,1.50,-15.38,0.05,0.00,0.02,-5.83,-2.68,7.12,0.47,-0.36,0.03,0.81,12
1403497,-5.85,-2.68,7.10,-0.00,0.02,-0.00,35.12,2.25,-15.94,-0.02,0.00,-0.01,-5.83,-2.68,7.11,0.47,-0.36,0.03,0.81,12
1403537,-5.93,-2.72,7.06,-0.00,-0.05,-0.03,35.06,0.12,-14.75,-0.11,-0.03,-0.05,-5.82,-2.69,7.12,0.47,-0.36,0.03,0.81,12
1403579,-5.73,-2.72,7.18,0.00,-0.04,-0.02,34.75,2.19,-15.62,-0.05,0.02,-0.06,-5.80,-2.70,7.12,0.47,-0.36,0.03,0.81,12
1403619,-5.70,-2.76,7.21,0.00,0.04,0.02,35.56,0.81,-14.69,0.08,-0.02,0.06,-5.81,-2.70,7.12,0.47,-0.36,0.03,0.81,12
1403657,-5.85,-2.68,7.10,0.00,0.02,0.00,35.06,1.06,-15.12,-0.03,0.02,-0.02,-5.82,-2.70,7.12,0.47,-0.36,0.03,0.81,12
1403697,-5.93,-2.68,7.07,-0.00,-0.06,-0.02,36.81,2.00,-13.56,-0.11,0.03,-0.06,-5.81,-2.71,7.12,0.47,-0.36,0.03,0.81,12
1403739,-5.70,-2.76,7.21,-0.01,0.01,0.01,35.38,1.44,-16.19,0.03,-0.01,0.02,-5.80,-2.71,7.12,0.47,-0.36,0.03,0.81,12
1403779,-5.85,-2.68,7.10,-0.00,0.03,0.01,36.62,2.94,-15.44,0.12,-0.05,0.10,-5.81,-2.71,7.12,0.47,-0.36,0.03,0.81,12
1403817,-5.89,-2.72,7.07,-0.00,-0.03,-0.01,34.50,1.81,-14.19,-0.08,-0.01,-0.06,-5.80,-2.71,7.12,0.47,-0.36,0.03,0.81,12
1403857,-5.81,-2.72,7.14,-0.02,-0.01,0.00,35.00,1.44,-16.25,-0.01,-0.01,0.02,-5.80,-2.71,7.12,0.47,-0.36,0.03,0.81,12
1403897,-5.77,-2.72,7.18,-0.01,0.02,0.02,35.88,1.19,-15.81,0.03,0.00,0.05,-5.80,-2.72,7.12,0.47,-0.36,0.03,0.81,12
1403939,-5.81,-2.72,7.14,-0.00,0.04,0.01,34.69,1.62,-15.62,0.12,-0.04,0.06,-5.81,-2.72,7.12,0.47,-0.36,0.03,0.81,12
1403977,-5.93,-2.68,7.07,-0.01,-0.02,-0.01,34.75,2.50,-15.62,-0.11,0.04,-0.06,-5.81,-2.72,7.12,0.47,-0.36,0.03,0.81,12
1404017,-5.81,-2.72,7.11,-0.03,-0.02,-0.01,35.56,0.81,-14.69,-0.01,0.01,-0.03,-5.80,-2.73,7.13,0.47,-0.36,0.03,0.81,12
1404057,-5.73,-2.76,7.18,-0.03,0.04,0.02,35.38,1.12,-15.81,0.07,-0.03,0.05,-5.80,-2.73,7.12,0.47,-0.36,0.03,0.81,12
1404099,-5.85,-2.72,7.07,-0.01,0.05,0.01,35.19,1.38,-15.12,0.09,-0.03,0.06,-5.82,-2.73,7.12,0.47,-0.36,0.03,0.81,12
1404137,-5.93,-2.72,7.03,-0.01,-0.02,-0.01,34.62,1.06,-15.62,-0.11,0.02,-0.09,-5.82,-2.73,7.11,0.47,-0.36,0.03,0.81,12
1404177,-5.89,-2.72,7.07,-0.03,-0.03,-0.00,36.25,2.62,-14.75,-0.07,0.02,-0.05,-5.81,-2.73,7.12,0.47,-0.36,0.03,0.81,12
1404217,-5.77,-2.72,7.14,0.00,0.02,0.01,34.44,1.25,-14.12,0.05,0.02,0.04,-5.82,-2.74,7.10,0.47,-0.36,0.03,0.81,12
1404259,-5.89,-2.68,7.06,0.00,0.04,0.00,33.75,0.94,-14.94,0.13,-0.05,0.08,-5.83,-2.74,7.10,0.47,-0.36,0.03,0.81,12
1404297,-5.93,-2.72,7.06,0.00,-0.04,-0.01,37.19,2.38,-14.19,-0.11,0.02,-0.05,-5.82,-2.74,7.11,0.47,-0.36,0.03,0.81,12
1404337,-5.81,-2.72,7.14,-0.01,-0.01,0.00,36.06,2.31,-15.50,0.01,0.02,0.03,-5.82,-2.74,7.11,0.47,-0.36,0.03,0.81,12
1404377,-5.70,-2.76,7.18,-0.01,0.05,0.02,36.12,2.00,-14.69,0.12,-0.02,0.08,-5.82,-2.74,7.10,0.47,-0.36,0.03,0.81,12
1404419,-5.96,-2.72,7.02,0.00,0.02,0.00,35.88,2.56,-14.00,0.02,-0.06,0.00,-5.84,-2.73,7.10,0.47,-0.36,0.03,0.81,12
1404458,-5.89,-2.72,7.07,-0.01,-0.03,-0.01,34.56,1.38,-15.94,-0.06,0.02,-0.04,-5.83,-2.74,7.10,0.47,-0.36,0.03,0.81,12
1404499,-5.73,-2.80,7.11,-0.00,0.01,0.01,35.06,1.38,-15.12,0.09,-0.05,0.00,-5.83,-2.74,7.10,0.47,-0.36,0.03,0.81,12
1404541,-5.93,-2.72,7.06,0.00,0.06,0.01,34.69,1.31,-15.19,0.06,-0.09,0.05,-5.84,-2.74,7.09,0.47,-0.36,0.03,0.81,12
1404581,-5.93,-2.68,7.07,-0.00,-0.03,-0.01,36.62,2.31,-15.00,-0.08,0.03,-0.02,-5.84,-2.75,7.09,0.47,-0.36,0.03,0.81,12
1404618,-5.81,-2.76,7.11,-0.01,-0.02,0.00,33.62,0.69,-15.69,0.02,-0.01,0.01,-5.84,-2.75,7.09,0.47,-0.36,0.03,0.81,12
1404659,-5.73,-2.80,7.14,-0.00,0.06,0.02,35.31,1.94,-14.81,0.11,-0.05,0.05,-5.84,-2.75,7.09,0.47,-0.36,0.03,0.81,12
1404701,-5.96,-2.68,7.03,-0.00,-0.01,-0.01,34.38,2.75,-15.31,-0.04,0.03,-0.02,-5.85,-2.75,7.08,0.47,-0.36,0.03,0.81,12
1404741,-5.81,-2.76,7.11,-0.01,-0.03,-0.00,34.69,1.31,-15.19,-0.12,0.07,-0.06,-5.84,-2.75,7.09,0.47,-0.36,0.03,0.81,12
1404778,-5.73,-2.80,7.14,-0.01,0.06,0.02,36.12,2.62,-15.50,0.12,-0.05,0.06,-5.85,-2.75,7.08,0.47,-0.36,0.03,0.81,12
1404819,-5.93,-2.76,7.03,0.00,0.01,0.00,36.06,1.69,-15.06,-0.06,-0.01,-0.05,-5.87,-2.75,7.07,0.47,-0.36,0.03,0.81,12
1404859,-5.96,-2.76,6.98,0.00,-0.03,-0.01,34.88,2.50,-14.88,-0.11,-0.01,-0.08,-5.86,-2.75,7.07,0.47,-0.36,0.03,0.81,12
1404901,-5.77,-2.76,7.10,0.00,-0.00,-0.00,35.56,2.00,-15.50,-0.03,0.04,-0.05,-5.86,-2.76,7.07,0.47,-0.36,0.03,0.81,12
1404938,-5.85,-2.72,7.07,0.00,0.01,0.00,35.31,1.38,-14.44,0.01,0.03,0.00,-5.86,-2.75,7.06,0.47,-0.36,0.03,0.80,12
1404979,-5.93,-2.72,7.03,0.00,-0.02,-0.02,36.06,1.44,-15.06,-0.06,0.03,-0.04,-5.87,-2.75,7.06,0.47,-0.36,0.03,0.80,12
1405019,-5.89,-2.72,7.07,-0.00,-0.03,-0.01,36.06,1.12,-14.69,-0.03,0.03,0.00,-5.86,-2.75,7.06,0.47,-0.36,0.03,0.81,12
1405061,-5.77,-2.80,7.11,-0.01,0.01,0.01,35.94,2.31,-16.19,0.04,0.02,0.03,-5.85,-2.74,7.07,0.47,-0.36,0.03,0.81,12
1405099,-5.81,-2.76,7.11,0.00,0.06,0.02,35.56,2.31,-15.88,0.05,-0.02,0.04,-5.87,-2.74,7.06,0.47,-0.36,0.03,0.81,12
1405139,-5.96,-2.68,7.03,-0.01,-0.03,-0.00,35.69,2.25,-15.12,-0.09,0.06,-0.04,-5.88,-2.74,7.06,0.47,-0.36,0.03,0.80,12
1405179,-5.89,-2.72,7.02,-0.01,-0.03,-0.01,35.69,2.25,-15.12,-0.03,0.02,-0.05,-5.86,-2.74,7.07,0.47,-0.36,0.03,0.81,12
1405221,-5.81,-2.83,7.11,-0.00,0.05,0.02,36.25,1.69,-13.94,0.09,-0.05,0.04,-5.87,-2.74,7.06,0.47,-0.36,0.03,0.81,12
1405259,-5.96,-2.76,6.98,0.01,0.04,0.01,36.12,2.31,-15.06,-0.09,-0.01,-0.07,-5.88,-2.75,7.05,0.47,-0.36,0.03,0.80,12
1405299,-6.00,-2.72,6.98,0.00,-0.06,-0.03,35.44,2.19,-14.06,-0.13,0.03,-0.07,-5.88,-2.75,7.05,0.47,-0.36,0.03,0.80,12
1405339,-5.85,-2.80,7.06,0.00,-0.02,-0.01,35.44,2.19,-14.06,0.02,-0.04,0.00,-5.87,-2.76,7.06,0.47,-0.36,0.03,0.81,12
1405381,-5.73,-2.80,7.11,0.00,0.04,0.02,35.38,2.19,-14.50,0.09,-0.04,0.08,-5.87,-2.76,7.06,0.47,-0.36,0.03,0.80,12
1405420,-5.93,-2.68,7.02,0.01,0.04,0.01,35.81,1.19,-16.12,-0.05,0.07,-0.02,-5.88,-2.75,7.05,0.47,-0.36,0.03,0.80,12
1405459,-6.00,-2.64,7.06,-0.01,-0.05,-0.02,35.56,2.31,-15.88,-0.14,0.12,0.01,-5.87,-2.76,7.05,0.47,-0.36,0.03,0.80,12
1405500,-5.85,-2.72,7.18,-0.01,0.02,0.02,36.12,2.00,-14.69,0.02,0.03,0.12,-5.88,-2.75,7.06,0.47,-0.36,0.03,0.80,12
1405541,-5.89,-2.80,6.95,0.00,0.03,0.01,36.06,1.44,-14.69,0.07,-0.09,0.04,-5.88,-2.74,7.06,0.47,-0.36,0.03,0.80,12
1405581,-5.93,-2.68,6.98,-0.00,-0.03,-0.02,34.88,1.56,-14.44,-0.04,0.06,-0.07,-5.88,-2.74,7.06,0.47,-0.36,0.03,0.80,12
1405620,-5.85,-2.76,7.14,-0.01,-0.00,0.01,32.88,0.88,-14.62,0.02,-0.01,0.08,-5.88,-2.75,7.06,0.47,-0.36,0.03,0.80,12
1405660,-5.77,-2.80,7.02,0.00,0.04,0.00,34.25,1.00,-14.88,0.12,-0.05,-0.03,-5.89,-2.75,7.05,0.47,-0.36,0.03,0.80,12
1405702,-5.93,-2.76,7.03,0.00,-0.02,-0.01,35.12,0.75,-15.12,-0.01,-0.05,-0.03,-5.88,-2.75,7.05,0.47,-0.36,0.03,0.80,12
1405742,-5.89,-2.72,7.11,0.01,-0.02,-0.01,34.62,1.38,-15.62,-0.02,0.04,0.05,-5.87,-2.76,7.05,0.47,-0.36,0.03,0.80,12
1405780,-5.81,-2.76,7.07,0.00,-0.01,0.00,35.69,1.62,-14.31,0.05,0.00,0.00,-5.86,-2.76,7.06,0.47,-0.36,0.03,0.80,12
1405820,-5.77,-2.80,7.07,0.01,0.03,0.00,34.94,1.88,-14.12,0.09,-0.04,0.00,-5.87,-2.76,7.06,0.47,-0.36,0.03,0.80,12
1405862,-5.93,-2.72,7.06,0.00,-0.02,-0.01,36.19,1.44,-13.94,-0.06,-0.01,0.05,-5.87,-2.75,7.05,0.47,-0.36,0.03,0.80,12
1405902,-5.81,-2.76,7.02,0.00,-0.03,-0.00,35.19,0.44,-14.00,0.05,0.00,-0.04,-5.86,-2.76,7.06,0.47,-0.36,0.03,0.80,12
1405940,-5.73,-2.83,7.10,0.00,0.04,0.02,35.25,2.25,-14.81,0.12,-0.08,0.04,-5.86,-2.75,7.06,0.47,-0.36,0.03,0.80,12
1405980,-5.89,-2.76,7.07,0.00,0.03,0.02,35.94,1.12,-15.38,-0.01,-0.01,0.01,-5.88,-2.75,7.05,0.47,-0.36,0.03,0.80,12
1406022,-5.89,-2.72,7.07,-0.01,-0.05,-0.02,36.12,0.81,-13.88,-0.10,0.11,-0.04,-5.87,-2.75,7.06,0.47,-0.36,0.03,0.80,12
1406062,-5.77,-2.83,7.10,-0.01,0.00,0.01,34.31,1.56,-14.94,0.09,-0.08,0.04,-5.86,-2.75,7.06,0.47,-0.36,0.03,0.81,12
1406100,-5.77,-2.83,7.10,0.00,0.06,0.02,35.75,1.38,-14.00,0.10,-0.07,0.05,-5.88,-2.76,7.05,0.47,-0.36,0.03,0.80,12
1406140,-5.96,-2.72,7.07,0.00,-0.02,-0.01,35.69,0.75,-13.94,-0.09,0.04,0.01,-5.88,-2.76,7.05,0.47,-0.36,0.03,0.80,12
1406182,-5.81,-2.83,7.02,0.01,-0.07,-0.03,35.12,3.06,-13.81,-0.23,0.01,-0.12,-5.85,-2.77,7.07,0.47,-0.36,0.03,0.80,12
1406222,-5.70,-2.80,7.14,0.01,0.04,0.00,35.75,2.25,-14.75,0.16,-0.03,0.07,-5.86,-2.77,7.07,0.47,-0.36,0.03,0.80,12
1406260,-5.89,-2.68,7.06,0.00,0.02,0.01,34.94,2.50,-14.56,-0.02,0.09,0.00,-5.87,-2.77,7.06,0.47,-0.36,0.03,0.80,12
1406300,-5.96,-2.72,7.02,0.00,-0.03,-0.01,35.75,0.75,-13.62,-0.11,0.05,-0.04,-5.86,-2.77,7.06,0.47,-0.36,0.03,0.80,12
1406342,-5.77,-2.80,7.11,-0.01,-0.01,0.00,35.50,0.50,-14.69,0.04,0.05,0.00,-5.85,-2.77,7.06,0.47,-0.36,0.03,0.80,12
1406382,-5.81,-2.80,7.10,0.00,0.06,0.02,35.62,1.62,-14.75,0.09,-0.03,0.03,-5.86,-2.77,7.07,0.47,-0.36,0.03,0.80,12
1406420,-6.04,-2.68,7.03,-0.00,-0.01,0.00,37.06,2.06,-14.94,-0.18,0.08,-0.03,-5.86,-2.76,7.05,0.47,-0.36,0.03,0.80,12
1406460,-5.89,-2.72,6.98,-0.01,-0.05,-0.01,36.56,1.75,-15.00,-0.03,0.05,-0.08,-5.86,-2.77,7.07,0.47,-0.36,0.03,0.80,12
1406502,-5.81,-2.80,7.14,0.00,0.03,0.01,36.62,1.69,-14.25,0.08,-0.07,-0.04,-5.85,-2.76,7.06,0.47,-0.36,0.03,0.80,12
1406542,-5.93,-2.72,7.06,-0.00,0.02,0.01,36.12,2.00,-15.06,0.05,-0.04,0.09,-5.86,-2.76,7.05,0.47,-0.36,0.03,0.80,12
1406581,-5.96,-2.68,6.99,-0.01,-0.05,-0.02,34.88,1.56,-14.44,-0.11,0.09,-0.07,-5.86,-2.77,7.06,0.47,-0.36,0.03,0.80,12
1406621,-5.85,-2.80,7.03,0.00,-0.01,0.00,35.12,1.62,-15.19,0.00,-0.03,-0.05,-5.85,-2.77,7.07,0.47,-0.36,0.03,0.80,12
1406663,-5.93,-2.72,7.03,0.02,0.06,0.01,35.44,2.00,-16.25,0.09,-0.11,0.12,-5.87,-2.77,7.06,0.47,-0.36,0.03,0.80,12
1406703,-6.00,-2.68,6.95,0.00,-0.06,-0.02,34.56,0.44,-15.50,-0.06,0.05,-0.04,-5.87,-2.77,7.06,0.47,-0.36,0.03,0.80,12
1406741,-5.81,-2.80,7.06,0.00,-0.03,-0.01,35.12,1.94,-15.19,0.05,-0.03,-0.02,-5.86,-2.77,7.08,0.47,-0.36,0.03,0.80,12
1406781,-5.73,-2.83,7.14,0.01,0.06,0.02,35.25,2.56,-15.19,0.13,-0.07,0.09,-5.87,-2.77,7.05,0.47,-0.36,0.03,0.80,12
1406823,-5.93,-2.68,6.98,-0.01,-0.01,0.00,34.50,2.12,-14.19,-0.02,0.04,0.01,-5.87,-2.76,7.05,0.47,-0.36,0.03,0.80,12
1406863,-5.81,-2.80,7.06,-0.00,-0.03,-0.01,36.31,3.44,-14.75,-0.06,0.08,-0.07,-5.87,-2.76,7.05,0.47,-0.36,0.03,0.80,12
1406901,-5.81,-2.83,7.11,0.00,0.03,0.02,35.69,1.38,-14.31,0.05,-0.07,0.05,-5.87,-2.76,7.05,0.47,-0.36,0.03,0.80,12
1406941,-5.85,-2.76,7.07,-0.00,0.02,0.01,34.38,0.62,-13.75,0.02,0.00,0.02,-5.88,-2.76,7.05,0.47,-0.36,0.03,0.80,12
1406983,-5.93,-2.76,7.03,0.00,-0.02,-0.01,36.44,0.88,-14.94,-0.05,0.04,-0.06,-5.88,-2.76,7.05,0.47,-0.36,0.03,0.80,12
1407024,-5.85,-2.80,7.10,-0.00,-0.02,-0.01,35.06,1.38,-15.12,-0.06,0.00,-0.02,-5.87,-2.76,7.05,0.47,-0.36,0.03,0.80,12
1407062,-5.81,-2.80,7.06,0.00,0.03,0.01,35.56,2.00,-15.44,0.05,-0.04,0.02,-5.87,-2.76,7.05,0.47,-0.36,0.03,0.80,12
1407102,-5.89,-2.76,7.02,0.00,-0.01,-0.01,35.56,1.69,-15.12,-0.01,0.00,-0.02,-5.88,-2.76,7.05,0.47,-0.36,0.03,0.80,12
1407144,-5.85,-2.80,7.06,-0.00,-0.02,-0.01,35.06,2.75,-14.12,-0.02,0.04,-0.03,-5.87,-2.76,7.05,0.47,-0.36,0.03,0.80,12
1407184,-5.85,-2.80,7.03,0.00,0.00,0.00,36.75,2.31,-14.25,0.01,-0.04,0.01,-5.86,-2.76,7.05,0.47,-0.36,0.03,0.80,12
1407222,-5.89,-2.76,7.07,-0.00,0.00,0.00,35.94,1.44,-15.81,-0.02,0.01,0.02,-5.87,-2.77,7.05,0.47,-0.36,0.03,0.80,12
1407262,-5.85,-2.76,7.14,-0.00,0.02,0.00,35.88,2.88,-14.38,0.02,0.01,0.09,-5.87,-2.77,7.05,0.47,-0.36,0.03,0.80,12
1407304,-5.89,-2.76,7.02,0.00,-0.03,-0.01,36.31,0.88,-15.69,-0.02,0.05,0.02,-5.87,-2.77,7.05,0.47,-0.36,0.03,0.80,12
1407344,-5.81,-2.83,7.11,0.00,0.00,0.01,34.31,1.56,-14.94,-0.02,0.01,-0.03,-5.87,-2.77,7.05,0.47,-0.36,0.03,0.80,12
1407382,-5.85,-2.72,7.11,-0.00,0.04,0.01,36.62,2.62,-15.00,0.03,0.05,0.05,-5.88,-2.77,7.05,0.47,-0.36,0.03,0.80,12
1407422,-5.96,-2.72,6.98,-0.01,-0.03,-0.01,35.69,2.56,-15.12,-0.08,0.04,-0.07,-5.88,-2.76,7.05,0.47,-0.36,0.03,0.80,12
1407464,-5.85,-2.80,7.06,0.01,-0.03,-0.01,36.62,2.31,-15.00,-0.06,-0.07,-0.04,-5.87,-2.76,7.06,0.47,-0.36,0.03,0.80,12
1407504,-5.81,-2.80,7.14,0.00,0.03,0.02,35.62,1.62,-14.75,0.02,-0.02,0.00,-5.88,-2.77,7.06,0.47,-0.36,0.03,0.80,12
1407542,-5.89,-2.68,7.03,0.01,0.01,-0.00,35.69,1.62,-14.38,0.00,0.09,-0.03,-5.89,-2.77,7.05,0.47,-0.36,0.03,0.80,12
1407583,-5.96,-2.76,7.02,0.00,-0.04,-0.02,35.81,1.62,-13.62,-0.09,0.02,-0.03,-5.88,-2.77,7.05,0.47,-0.36,0.03,0.80,12
1407625,-5.73,-2.80,7.11,-0.00,-0.01,0.00,36.06,2.31,-15.50,0.02,-0.02,0.00,-5.87,-2.77,7.06,0.47,-0.36,0.03,0.80,12
1407665,-5.85,-2.76,7.11,0.00,0.04,0.02,34.81,1.88,-14.88,0.14,-0.03,0.04,-5.88,-2.77,7.06,0.47,-0.36,0.03,0.80,12
1407703,-5.96,-2.72,6.98,-0.00,-0.03,-0.01,34.31,1.56,-14.94,-0.09,0.05,-0.07,-5.88,-2.77,7.05,0.47,-0.36,0.03,0.80,12
1407743,-5.85,-2.80,7.06,0.00,-0.03,-0.01,34.81,3.12,-15.69,0.01,-0.03,0.00,-5.86,-2.77,7.06,0.47,-0.36,0.03,0.80,12
1407785,-5.85,-2.80,7.06,-0.01,0.02,0.01,34.81,1.88,-14.88,0.09,0.02,0.08,-5.86,-2.77,7.06,0.47,-0.36,0.03,0.80,12
1407825,-5.89,-2.80,7.03,-0.00,0.01,0.00,36.38,1.50,-15.75,0.01,-0.03,-0.01,-5.86,-2.77,7.07,0.47,-0.36,0.03,0.80,12
1407863,-5.89,-2.76,7.07,0.00,-0.02,-0.01,36.56,1.75,-14.62,-0.03,0.02,-0.01,-5.86,-2.77,7.07,0.47,-0.36,0.03,0.80,12
1407903,-5.85,-2.72,7.11,-0.00,-0.02,0.00,36.62,1.69,-14.31,0.00,0.05,0.02,-5.85,-2.77,7.08,0.47,-0.36,0.03,0.80,12
1407943,-5.81,-2.76,7.07,-0.01,0.00,0.00,35.69,1.62,-14.31,0.04,0.02,-0.02,-5.85,-2.77,7.08,0.47,-0.36,0.03,0.80,12
1407985,-5.85,-2.83,7.02,0.01,0.03,0.01,36.62,2.00,-14.62,0.04,-0.07,-0.04,-5.85,-2.77,7.06,0.47,-0.36,0.03,0.80,12
1408023,-5.96,-2.76,7.07,0.00,-0.00,-0.01,35.62,1.38,-14.75,-0.11,0.02,0.00,-5.85,-2.77,7.06,0.47,-0.36,0.03,0.80,12
1408063,-5.89,-2.72,7.11,-0.00,-0.04,-0.01,34.31,2.50,-15.62,-0.04,0.05,0.04,-5.84,-2.77,7.06,0.47,-0.36,0.03,0.80,12
1408103,-5.77,-2.80,7.11,-0.00,0.03,0.01,35.19,1.06,-14.38,0.08,-0.02,0.03,-5.85,-2.77,7.07,0.47,-0.36,0.03,0.80,12
1408145,-5.89,-2.76,6.98,-0.00,0.02,0.01,34.06,0.69,-15.62,0.05,-0.02,0.07,-5.86,-2.78,7.07,0.47,-0.36,0.03,0.80,12
1408183,-5.89,-2.76,6.98,-0.01,-0.03,-0.01,35.69,1.62,-14.31,-0.04,0.02,-0.08,-5.85,-2.78,7.07,0.47,-0.36,0.03,0.80,12
1408223,-5.81,-2.80,7.10,-0.00,0.00,0.01,35.19,1.38,-15.12,0.03,-0.02,0.03,-5.84,-2.77,7.07,0.47,-0.36,0.03,0.80,12
1408263,-5.81,-2.80,7.14,0.00,0.03,0.01,35.81,0.25,-15.31,0.04,-0.02,0.08,-5.85,-2.77,7.06,0.47,-0.36,0.03,0.80,12
1408305,-5.90,-2.76,7.07,-0.01,-0.04,-0.01,35.62,1.94,-15.12,-0.05,0.06,-0.03,-5.85,-2.78,7.06,0.47,-0.36,0.03,0.80,12
1408343,-5.86,-2.84,7.11,0.01,-0.00,0.00,34.19,1.88,-16.06,-0.02,-0.07,0.04,-5.84,-2.77,7.08,0.47,-0.36,0.03,0.80,12
1408383,-5.82,-2.80,7.11,0.00,0.02,0.01,36.62,2.31,-15.00,0.03,-0.03,0.04,-5.85,-2.77,7.08,0.47,-0.36,0.03,0.80,12
1408423,-5.86,-2.76,7.07,-0.00,0.01,0.01,35.62,1.94,-15.12,-0.01,0.01,0.00,-5.85,-2.77,7.07,0.47,-0.36,0.03,0.80,12
1408465,-5.90,-2.80,7.07,-0.01,-0.02,-0.01,35.25,1.31,-14.06,-0.01,0.02,-0.00,-5.85,-2.78,7.08,0.47,-0.36,0.03,0.80,12
1408503,-5.82,-2.84,7.03,-0.00,0.01,0.01,36.12,2.31,-15.06,0.04,-0.06,-0.04,-5.86,-2.78,7.08,0.47,-0.36,0.03,0.80,12
1408543,-5.90,-2.80,7.11,0.01,0.02,0.01,35.50,2.00,-15.88,-0.03,-0.02,0.04,-5.87,-2.78,7.07,0.47,-0.36,0.03,0.80,12
1408583,-5.94,-2.72,7.04,-0.00,-0.03,-0.01,35.69,2.56,-15.12,-0.07,0.06,-0.04,-5.87,-2.78,7.07,0.47,-0.36,0.03,0.80,12
1408625,-5.82,-2.80,7.07,-0.00,-0.01,-0.01,36.00,2.00,-15.44,0.00,0.03,-0.04,-5.87,-2.79,7.08,0.47,-0.36,0.03,0.80,12
1408664,-5.82,-2.84,7.15,0.00,0.03,0.02,37.12,2.69,-14.94,0.04,-0.06,0.08,-5.86,-2.78,7.07,0.47,-0.36,0.03,0.80,12
1408704,-5.94,-2.76,7.04,0.00,-0.00,-0.00,35.69,1.38,-14.31,-0.06,0.02,-0.04,-5.88,-2.78,7.07,0.47,-0.36,0.03,0.80,12
1408744,-5.90,-2.72,7.03,-0.01,-0.04,-0.02,35.69,1.38,-14.31,-0.03,0.06,-0.04,-5.87,-2.78,7.07,0.47,-0.36,0.03,0.80,12
1408786,-5.82,-2.88,7.11,0.01,0.04,0.02,36.56,2.38,-15.44,0.04,-0.01,0.04,-5.87,-2.79,7.07,0.47,-0.36,0.03,0.80,12
1408824,-5.90,-2.72,7.03,0.02,0.01,-0.00,35.25,1.88,-14.44,-0.02,0.06,-0.04,-5.88,-2.78,7.07,0.47,-0.36,0.03,0.80,12
1408864,-5.94,-2.76,7.04,-0.00,-0.05,-0.02,35.38,2.19,-14.50,-0.07,0.03,-0.04,-5.87,-2.79,7.08,0.47,-0.36,0.03,0.80,12
1410616,-1.46,-3.03,6.27,-1.20,-3.02,-1.55,15.25,2.50,-18.12,0.01,1.50,-2.17,-1.62,-3.84,8.67,0.54,-0.18,-0.12,0.81,12
1410647,-0.50,-4.22,6.99,-1.70,-3.02,-0.57,10.88,3.75,-21.56,-1.10,1.38,-2.28,-0.36,-4.41,8.55,0.55,-0.15,-0.18,0.80,12
1410686,1.42,-4.95,7.23,-1.64,-2.19,0.14,4.44,6.44,-22.50,0.86,0.02,-0.99,0.55,-4.97,8.22,0.53,-0.12,-0.24,0.80,12
1410724,1.72,-5.52,7.92,-1.30,-0.71,0.31,6.75,8.31,-20.56,0.77,-0.05,0.07,0.95,-5.47,7.85,0.52,-0.12,-0.28,0.80,12
1410764,1.15,-5.63,8.61,-0.79,-0.58,0.49,6.00,10.31,-21.44,0.12,0.17,1.02,1.02,-5.80,7.59,0.51,-0.12,-0.30,0.80,12
1410803,1.00,-5.82,8.14,-0.31,-0.36,0.89,6.00,10.31,-21.44,-0.02,0.17,0.71,1.02,-5.99,7.44,0.49,-0.12,-0.31,0.80,12
1410846,2.38,-5.71,6.80,-0.28,0.49,0.74,7.12,12.75,-21.44,1.59,0.38,-0.58,0.79,-6.09,7.38,0.48,-0.13,-0.31,0.81,12
1410884,1.46,-5.79,6.54,-0.64,0.30,0.45,7.12,13.62,-22.19,0.97,0.45,-0.74,0.48,-6.23,7.28,0.47,-0.15,-0.31,0.81,12
1410924,1.80,-7.24,8.60,-0.45,-0.49,-0.54,6.12,14.19,-23.44,1.14,-0.77,1.55,0.66,-6.48,7.05,0.46,-0.15,-0.33,0.81,12
1410963,2.61,-8.24,9.03,0.11,0.50,-0.42,6.12,14.19,-23.44,1.75,-1.74,2.02,0.86,-6.50,7.01,0.47,-0.14,-0.34,0.80,12
1411005,0.50,-6.44,6.46,-0.01,0.37,-0.14,7.25,13.88,-21.44,-0.28,0.02,-0.59,0.77,-6.46,7.05,0.48,-0.15,-0.33,0.80,12
1411044,0.61,-6.13,6.46,-0.24,-0.07,-0.10,7.12,13.31,-21.81,-0.16,0.37,-0.56,0.77,-6.50,7.02,0.48,-0.15,-0.33,0.80,12
1411085,1.07,-6.40,7.04,-0.15,-0.04,-0.24,6.62,15.12,-23.75,0.23,0.14,0.07,0.84,-6.54,6.97,0.48,-0.15,-0.34,0.79,12
1411125,1.00,-6.67,7.07,-0.15,-0.03,-0.16,6.62,15.12,-23.75,0.07,-0.10,0.14,0.92,-6.57,6.93,0.49,-0.15,-0.34,0.79,12
1411166,1.11,-7.09,6.92,0.15,-0.07,-0.01,6.25,13.88,-22.31,0.17,-0.54,-0.03,0.94,-6.55,6.95,0.49,-0.15,-0.34,0.79,12
1411206,1.57,-6.90,6.42,-0.09,0.04,-0.03,5.56,14.06,-21.31,0.62,-0.34,-0.53,0.95,-6.56,6.95,0.49,-0.15,-0.34,0.79,12
1411246,1.46,-6.75,7.19,0.04,0.16,0.06,6.62,14.19,-23.06,0.55,-0.17,0.24,0.91,-6.58,6.95,0.49,-0.15,-0.34,0.79,12
1411285,1.19,-6.59,6.77,-0.17,0.06,-0.06,6.62,14.19,-23.06,0.30,0.01,-0.16,0.88,-6.60,6.92,0.49,-0.15,-0.34,0.79,12
1411328,1.00,-6.94,7.19,0.02,-0.02,0.00,6.69,14.50,-23.06,0.11,-0.31,0.28,0.88,-6.62,6.91,0.49,-0.15,-0.34,0.79,12
1411366,1.26,-6.71,6.77,-0.03,-0.04,-0.04,5.75,14.12,-22.75,0.36,-0.09,-0.14,0.91,-6.62,6.91,0.49,-0.15,-0.34,0.79,12
1411406,1.34,-6.75,6.93,-0.00,0.06,-0.02,5.44,14.06,-22.12,0.43,-0.12,0.02,0.91,-6.62,6.91,0.49,-0.15,-0.34,0.79,12
1411450,1.23,-6.71,6.96,0.01,-0.05,-0.03,5.00,14.31,-22.19,0.23,-0.20,0.02,0.91,-6.62,6.91,0.49,-0.15,-0.34,0.79,12
1411488,1.34,-6.79,6.93,0.03,-0.02,-0.04,4.88,14.38,-22.88,0.39,-0.17,0.02,0.95,-6.62,6.91,0.49,-0.15,-0.34,0.79,12
1411526,1.30,-6.75,6.80,-0.04,0.04,-0.05,5.12,14.31,-21.38,0.35,-0.12,-0.11,0.95,-6.62,6.91,0.49,-0.15,-0.34,0.79,12
1411566,1.23,-6.79,7.00,0.01,0.00,-0.05,6.44,15.31,-22.38,0.27,-0.16,0.08,0.96,-6.62,6.91,0.49,-0.15,-0.34,0.79,12
1411609,1.23,-6.75,6.96,-0.01,-0.01,0.01,5.25,14.44,-23.19,0.21,-0.16,-0.03,0.98,-6.62,6.91,0.49,-0.15,-0.34,0.79,12
1411648,1.34,-6.82,6.88,0.04,-0.01,-0.00,5.75,14.44,-23.19,0.36,-0.20,-0.03,0.98,-6.62,6.91,0.49,-0.15,-0.34,0.79,12
1411686,1.30,-6.75,6.73,-0.01,0.03,-0.02,3.75,14.25,-21.94,0.11,0.03,-0.21,1.20,-6.77,6.95,0.49,-0.15,-0.34,0.78,12
1411726,1.19,-6.75,7.00,-0.03,0.02,-0.02,5.69,13.81,-23.12,-0.01,0.04,0.07,1.20,-6.79,6.92,0.49,-0.15,-0.35,0.78,12
1411770,1.30,-6.63,6.77,0.03,-0.08,0.01,4.00,14.31,-23.00,-0.21,-0.03,0.11,1.20,-6.79,6.92,0.49,-0.15,-0.35,0.78,12
1411809,1.30,-6.67,6.99,-0.03,0.00,-0.05,5.50,14.19,-24.62,0.08,0.14,-0.15,1.22,-6.77,6.91,0.49,-0.15,-0.35,0.78,12
1411846,1.15,-6.94,6.92,-0.02,-0.12,0.04,6.00,14.06,-21.25,-0.09,-0.17,0.02,1.24,-6.77,6.90,0.49,-0.15,-0.35,0.78,12
1411886,1.46,-6.86,6.84,0.02,0.05,-0.02,4.62,15.19,-22.25,0.20,-0.09,-0.06,1.26,-6.77,6.91,0.49,-0.15,-0.35,0.78,12
1411930,1.11,-6.71,6.85,-0.06,0.02,-0.02,5.44,15.25,-22.81,0.13,0.07,-0.09,1.25,-6.77,6.90,0.50,-0.15,-0.35,0.78,12
1411969,1.23,-6.82,7.07,-0.04,-0.02,-0.01,4.38,14.31,-22.94,-0.16,0.08,-0.03,1.27,-6.79,6.88,0.50,-0.15,-0.35,0.78,12
1412006,1.30,-6.82,6.89,0.00,-0.03,-0.01,4.19,13.94,-21.50,0.03,-0.03,0.01,1.27,-6.79,6.88,0.50,-0.15,-0.35,0.78,12
1412046,1.34,-6.75,6.81,0.00,0.02,0.01,7.00,15.00,-21.56,0.07,0.05,-0.07,1.27,-6.80,6.88,0.50,-0.15,-0.35,0.78,12
1412090,1.19,-6.67,6.93,0.03,-0.00,-0.00,4.31,15.25,-24.06,0.04,-0.04,0.04,1.27,-6.78,6.88,0.50,-0.15,-0.35,0.78,12
1412129,1.30,-6.79,6.89,0.01,-0.05,0.00,5.31,13.19,-22.06,-0.09,0.11,0.04,1.28,-6.77,6.88,0.50,-0.15,-0.35,0.78,12
1412166,1.34,-6.63,6.84,0.01,-0.01,-0.04,5.06,14.00,-21.38,0.04,0.14,-0.05,1.30,-6.77,6.89,0.50,-0.15,-0.35,0.78,12
1412207,1.26,-6.55,6.85,-0.07,-0.09,-0.04,4.88,14.38,-22.88,-0.06,0.21,-0.03,1.32,-6.77,6.88,0.50,-0.14,-0.35,0.78,12
1412250,1.42,-6.79,6.88,0.04,-0.01,-0.11,4.06,14.00,-22.25,-0.03,-0.23,0.24,1.37,-6.75,6.88,0.50,-0.14,-0.35,0.78,12
1412290,1.30,-6.86,6.80,0.07,-0.07,-0.12,4.94,14.62,-22.50,0.01,-0.06,-0.02,1.41,-6.73,6.90,0.50,-0.14,-0.35,0.78,12
1412327,1.38,-6.82,6.88,0.03,-0.09,-0.08,4.94,13.12,-21.69,-0.07,-0.11,-0.02,1.45,-6.71,6.91,0.50,-0.14,-0.35,0.78,12
1412367,1.53,-6.75,6.92,0.05,-0.04,-0.05,4.44,14.31,-22.56,0.05,-0.03,0.01,1.48,-6.72,6.91,0.50,-0.14,-0.36,0.78,12
1412411,1.53,-6.67,6.95,0.03,-0.00,-0.01,5.88,14.44,-22.38,0.08,-0.04,-0.07,1.49,-6.71,6.91,0.50,-0.13,-0.36,0.78,12
1412451,1.38,-6.63,6.96,0.05,-0.00,-0.04,4.00,14.00,-22.62,0.02,0.04,0.03,1.51,-6.70,6.93,0.50,-0.13,-0.35,0.78,12
1412487,1.38,-6.71,6.88,0.04,-0.06,-0.05,4.12,13.62,-21.81,-0.14,-0.03,-0.05,1.52,-6.68,6.94,0.50,-0.13,-0.35,0.78,12
1412527,1.53,-6.75,6.92,-0.00,-0.02,-0.01,4.31,12.88,-22.50,0.00,-0.07,-0.02,1.53,-6.68,6.94,0.50,-0.13,-0.35,0.78,12
1412569,1.61,-6.71,6.92,0.01,0.02,0.00,3.81,13.69,-23.69,0.08,-0.03,-0.02,1.53,-6.68,6.95,0.50,-0.13,-0.35,0.78,12
1412607,1.49,-6.67,6.95,-0.01,-0.03,-0.03,4.88,13.75,-22.50,-0.04,0.01,0.02,1.53,-6.68,6.94,0.50,-0.13,-0.35,0.78,12
1412647,1.57,-6.67,7.00,-0.02,-0.03,-0.02,4.69,13.31,-20.31,0.03,0.02,0.07,1.54,-6.69,6.93,0.50,-0.13,-0.36,0.78,12
1412687,1.65,-6.71,6.92,0.01,0.04,0.02,4.81,14.06,-22.88,0.11,-0.02,-0.01,1.54,-6.69,6.93,0.50,-0.13,-0.36,0.78,12
1412729,1.49,-6.67,6.92,0.00,0.00,0.00,5.81,14.12,-22.38,-0.03,0.01,-0.02,1.52,-6.68,6.94,0.50,-0.13,-0.36,0.78,12
1412767,1.46,-6.67,6.96,-0.01,-0.00,-0.01,4.00,13.38,-22.25,-0.07,0.02,0.02,1.53,-6.69,6.94,0.50,-0.13,-0.36,0.78,12
1412807,1.46,-6.71,6.93,-0.00,-0.01,-0.01,3.31,13.25,-20.81,-0.07,-0.02,-0.02,1.52,-6.69,6.94,0.50,-0.13,-0.36,0.78,12
1412847,1.49,-6.67,6.89,0.00,-0.01,-0.01,4.75,13.12,-22.81,-0.02,0.02,-0.05,1.52,-6.69,6.94,0.50,-0.13,-0.36,0.78,12
1412891,1.53,-6.67,6.95,-0.02,-0.02,-0.01,3.56,13.62,-22.31,-0.02,0.06,0.06,1.52,-6.69,6.94,0.50,-0.13,-0.36,0.78,12
1412930,1.57,-6.71,6.88,0.00,-0.00,0.00,4.00,13.38,-22.25,0.01,0.02,0.02,1.52,-6.69,6.94,0.50,-0.13,-0.36,0.78,12
1412967,1.53,-6.67,6.92,0.00,0.03,0.02,3.94,14.50,-20.81,0.02,0.02,-0.02,1.52,-6.69,6.94,0.50,-0.13,-0.36,0.78,12
1413009,1.46,-6.67,6.93,0.00,-0.00,0.01,4.00,13.06,-22.25,-0.05,0.01,-0.02,1.51,-6.68,6.94,0.50,-0.13,-0.36,0.78,12
1413049,1.53,-6.67,6.92,0.00,0.03,0.00,4.31,13.75,-22.88,0.03,0.01,-0.02,1.50,-6.68,6.94,0.50,-0.13,-0.36,0.78,12
1413086,1.46,-6.67,6.93,-0.01,-0.01,-0.01,3.94,13.38,-22.56,-0.04,0.01,-0.01,1.49,-6.68,6.93,0.50,-0.13,-0.36,0.78,12
1413127,1.57,-6.52,6.99,0.06,0.07,-0.07,4.19,13.31,-21.12,0.08,0.16,0.05,1.49,-6.67,6.95,0.50,-0.13,-0.36,0.78,12
1413169,1.34,-6.59,7.07,0.03,-0.06,-0.14,4.31,13.75,-22.88,-0.18,0.05,0.11,1.52,-6.64,6.96,0.51,-0.13,-0.35,0.78,12
1413212,1.80,-6.75,6.92,-0.04,-0.10,-0.09,3.81,13.38,-23.38,-0.15,-0.11,-0.07,1.57,-6.63,6.95,0.51,-0.13,-0.36,0.77,12
1413251,1.84,-6.67,6.88,-0.00,0.02,-0.00,4.06,13.06,-21.81,0.21,-0.11,-0.02,1.59,-6.64,6.95,0.51,-0.13,-0.36,0.77,12
1413288,1.65,-6.63,6.92,0.01,0.00,0.02,3.75,13.31,-21.19,0.07,0.01,-0.02,1.58,-6.64,6.95,0.51,-0.13,-0.36,0.77,12
1413328,1.61,-6.63,7.03,-0.00,0.03,0.01,3.62,14.25,-22.31,0.04,0.01,0.09,1.57,-6.64,6.95,0.51,-0.13,-0.36,0.77,12
1413370,1.49,-6.67,6.92,-0.00,-0.01,-0.00,4.56,14.12,-24.38,-0.08,-0.03,-0.02,1.57,-6.64,6.95,0.51,-0.13,-0.36,0.77,12
1413407,1.57,-6.67,6.96,-0.00,0.00,0.00,3.50,13.31,-22.62,-0.01,-0.03,0.01,1.58,-6.64,6.95,0.51,-0.13,-0.36,0.77,12
1413448,1.65,-6.63,6.95,0.00,0.01,0.01,2.88,14.12,-21.31,0.07,0.01,0.01,1.58,-6.64,6.95,0.51,-0.13,-0.36,0.77,12
1413488,1.57,-6.67,6.96,-0.00,0.00,0.01,2.69,13.88,-22.44,0.00,-0.02,0.01,1.57,-6.65,6.95,0.51,-0.13,-0.36,0.77,12
1413530,1.53,-6.67,6.92,-0.00,-0.01,0.00,3.88,13.38,-22.94,-0.05,-0.02,-0.02,1.58,-6.65,6.95,0.51,-0.13,-0.36,0.77,12
1413568,1.61,-6.63,6.95,-0.01,0.01,0.00,3.31,13.06,-23.38,0.04,0.03,0.01,1.57,-6.66,6.95,0.51,-0.13,-0.36,0.77,12
1413609,1.53,-6.67,6.92,-0.01,0.01,-0.01,2.88,14.12,-21.31,-0.09,-0.01,-0.02,1.62,-6.66,6.95,0.51,-0.13,-0.36,0.77,12
1413649,1.49,-6.67,6.92,-0.02,-0.03,-0.03,3.44,13.62,-23.00,-0.13,-0.00,-0.02,1.62,-6.66,6.94,0.51,-0.13,-0.36,0.77,12
1413691,1.53,-6.67,6.92,-0.02,-0.03,-0.02,4.50,13.69,-21.81,-0.10,-0.00,-0.01,1.63,-6.66,6.93,0.51,-0.13,-0.36,0.77,12
1413728,1.72,-6.67,6.93,0.00,0.03,0.01,4.38,13.69,-22.56,0.10,0.00,0.00,1.62,-6.67,6.92,0.51,-0.13,-0.36,0.77,12
1413769,1.61,-6.67,6.92,0.00,0.02,0.02,3.50,15.00,-20.88,0.00,-0.00,-0.01,1.61,-6.66,6.93,0.51,-0.13,-0.36,0.77,12
1413809,1.57,-6.63,6.93,-0.00,0.01,0.01,4.25,13.75,-23.31,-0.04,0.04,0.00,1.61,-6.67,6.92,0.51,-0.13,-0.36,0.77,12
1413851,1.61,-6.67,6.89,0.02,0.01,0.02,2.81,13.31,-23.81,0.01,-0.00,-0.05,1.60,-6.66,6.93,0.51,-0.13,-0.36,0.77,12
1413888,1.61,-6.71,6.92,0.01,0.03,0.02,4.00,12.56,-24.00,0.02,-0.05,-0.01,1.59,-6.66,6.93,0.51,-0.13,-0.36,0.77,12
1413928,1.46,-6.63,6.93,0.00,-0.02,-0.01,4.44,13.06,-21.75,-0.13,0.04,-0.02,1.59,-6.66,6.94,0.51,-0.13,-0.36,0.77,12
1413969,1.59,-6.61,6.97,0.03,-0.01,-0.03,3.56,13.31,-22.31,0.00,0.05,0.04,1.59,-6.66,6.93,0.51,-0.13,-0.36,0.77,12
1414011,1.55,-6.61,6.93,0.04,-0.03,-0.03,4.81,14.06,-22.88,-0.05,0.03,-0.02,1.60,-6.64,6.95,0.51,-0.13,-0.36,0.77,12
1414049,1.55,-6.69,6.89,0.00,-0.01,-0.01,3.75,12.56,-23.31,-0.05,-0.05,-0.05,1.60,-6.63,6.94,0.51,-0.13,-0.36,0.77,12
1414088,1.62,-6.61,7.00,0.04,0.01,-0.01,2.88,13.81,-21.31,0.02,0.02,0.06,1.60,-6.63,6.95,0.51,-0.13,-0.36,0.77,12
1414129,1.51,-6.65,6.93,-0.01,-0.03,-0.02,3.69,13.00,-21.19,-0.09,-0.03,-0.02,1.60,-6.62,6.95,0.51,-0.13,-0.36,0.77,12
1414169,1.59,-6.57,6.93,0.00,-0.00,-0.02,2.12,13.25,-22.44,-0.02,0.05,-0.02,1.60,-6.62,6.95,0.51,-0.13,-0.36,0.77,12
1414209,1.66,-6.61,6.89,0.03,0.00,-0.01,3.75,13.44,-23.69,0.05,0.01,-0.05,1.61,-6.62,6.95,0.51,-0.13,-0.36,0.77,12
1414250,1.59,-6.65,7.12,0.02,0.00,-0.03,2.69,12.69,-21.62,-0.02,-0.05,0.17,1.61,-6.60,6.95,0.51,-0.13,-0.36,0.77,12
1414290,1.59,-6.65,6.97,0.00,-0.02,-0.00,4.94,13.12,-21.38,-0.03,-0.05,0.02,1.62,-6.60,6.95,0.51,-0.12,-0.36,0.77,12
1414330,1.66,-6.53,6.93,0.00,-0.00,0.00,4.25,12.56,-22.50,0.05,0.08,-0.03,1.62,-6.61,6.96,0.51,-0.12,-0.36,0.77,12
1414370,1.62,-6.57,6.81,0.04,0.02,0.03,3.44,13.62,-23.00,0.01,0.02,-0.15,1.62,-6.59,6.96,0.51,-0.12,-0.36,0.77,12
1414410,1.55,-6.61,7.08,-0.01,-0.00,0.03,3.25,13.88,-21.62,-0.05,-0.02,0.11,1.60,-6.59,6.97,0.51,-0.13,-0.36,0.78,12
1414450,1.59,-6.53,6.86,0.03,-0.01,0.03,3.56,13.31,-22.31,-0.02,0.06,-0.12,1.60,-6.59,6.98,0.51,-0.13,-0.35,0.78,12
1414490,1.59,-6.57,6.89,0.04,-0.02,0.01,5.38,14.06,-22.44,-0.01,0.02,-0.09,1.59,-6.59,6.98,0.51,-0.13,-0.35,0.78,12
1414530,1.62,-6.61,7.16,-0.24,0.02,-0.00,3.19,13.56,-21.94,0.03,0.00,0.21,1.59,-6.61,6.95,0.51,-0.13,-0.36,0.78,12
1414573,2.16,-6.53,7.81,0.63,0.32,-0.56,2.56,13.25,-22.75,0.57,0.06,0.83,1.59,-6.59,6.98,0.51,-0.13,-0.35,0.77,12
1414610,1.86,-6.53,7.04,0.82,0.33,-0.61,3.88,12.19,-22.19,0.32,-0.15,-0.14,1.54,-6.38,7.18,0.52,-0.13,-0.34,0.77,12
1414650,2.08,-7.80,8.96,2.09,-0.36,-1.79,1.69,9.00,-24.81,0.24,-2.05,1.33,1.84,-5.75,7.63,0.55,-0.10,-0.31,0.77,12
1414689,1.43,-7.11,7.84,1.23,-0.25,-0.95,1.69,9.00,-24.81,-0.85,-1.95,-0.09,2.28,-5.16,7.94,0.57,-0.07,-0.30,0.76,12
1414733,3.77,-7.34,9.15,2.18,0.64,-0.27,-0.25,2.38,-23.62,1.43,-2.87,0.82,2.34,-4.47,8.34,0.58,-0.04,-0.26,0.77,12
1414770,3.27,-6.92,9.41,2.45,1.25,-0.60,0.69,-0.19,-23.81,1.18,-3.26,0.63,2.09,-3.66,8.79,0.60,-0.03,-0.22,0.77,12
1414810,1.39,-4.96,7.80,1.67,1.53,-0.15,6.31,-2.94,-22.94,-0.25,-2.07,-1.36,1.65,-2.89,9.17,0.61,-0.02,-0.17,0.78,12
1414849,0.59,-2.82,6.43,1.06,1.39,0.36,6.31,-2.94,-22.94,-0.48,-0.42,-2.97,1.07,-2.40,9.40,0.61,-0.03,-0.13,0.78,12
1414891,0.02,-2.55,6.77,0.30,1.41,0.38,10.38,-6.00,-19.69,-0.50,-0.36,-2.73,0.52,-2.20,9.51,0.61,-0.05,-0.10,0.79,12
1414930,0.09,-1.94,6.86,-0.14,1.98,-0.11,12.50,-5.75,-20.19,0.25,0.24,-2.66,-0.16,-2.18,9.52,0.61,-0.07,-0.08,0.79,12
1414970,-1.17,-1.29,6.16,-1.34,1.25,-0.08,15.12,-4.06,-21.75,-0.41,1.22,-3.23,-0.77,-2.51,9.40,0.61,-0.11,-0.07,0.78,12
1415014,-0.83,-4.31,10.38,-0.64,1.15,0.42,19.38,-2.88,-21.31,-0.08,-0.04,-0.82,-1.21,-2.97,9.20,0.61,-0.14,-0.08,0.78,12
1415052,-0.71,-1.78,9.23,-0.10,1.21,0.09,20.44,-2.44,-22.94,0.96,1.19,0.10,-1.67,-2.97,9.12,0.60,-0.16,-0.07,0.78,12
1415090,-1.52,-1.71,9.69,-0.31,0.60,-0.42,24.56,-1.00,-20.69,0.46,1.43,0.70,-1.98,-3.14,8.99,0.61,-0.18,-0.06,0.77,12
1415130,-1.59,-2.62,9.92,-0.12,0.48,-0.29,26.06,-1.69,-21.94,0.52,0.61,1.00,-2.12,-3.23,8.92,0.61,-0.19,-0.06,0.76,12
1415174,-1.86,-1.29,8.69,0.08,0.88,-0.25,27.50,-0.12,-22.56,0.18,0.16,0.50,-2.31,-3.21,8.88,0.62,-0.20,-0.05,0.76,12
1415212,-1.94,-1.17,9.57,-0.16,0.81,-0.47,28.88,-0.56,-21.69,0.64,2.12,0.80,-2.58,-3.30,8.77,0.62,-0.21,-0.04,0.75,12
1415250,-2.25,-1.09,9.80,-0.52,1.04,-0.53,31.88,3.62,-20.44,0.55,2.34,1.17,-2.80,-3.44,8.63,0.63,-0.23,-0.04,0.74,12
1415291,-3.36,-0.90,8.61,-1.46,1.20,-0.71,34.12,4.75,-21.25,-0.26,2.97,0.28,-3.09,-3.88,8.34,0.64,-0.26,-0.04,0.73,12
1415334,-5.08,-5.50,9.95,-0.07,0.03,0.39,35.00,5.38,-21.56,-2.96,0.38,0.89,-3.23,-4.16,8.15,0.63,-0.28,-0.05,0.72,12
1415374,-3.43,-3.58,8.80,0.90,-0.18,0.01,34.19,5.94,-21.69,-0.25,0.21,0.47,-3.18,-3.80,8.34,0.63,-0.26,-0.04,0.73,12
1415411,-4.05,-3.77,8.57,0.21,-0.36,-0.19,34.25,4.75,-20.50,-0.95,-0.12,0.15,-3.09,-3.66,8.42,0.64,-0.25,-0.04,0.73,12
1415451,-2.78,-3.74,8.23,0.40,-0.11,0.06,33.56,4.75,-21.69,0.19,-0.18,-0.29,-2.97,-3.55,8.52,0.64,-0.24,-0.04,0.73,12
1415495,-1.86,-2.89,8.54,0.69,-0.52,0.47,32.94,4.12,-22.12,0.78,0.02,0.27,-2.98,-3.38,8.58,0.64,-0.24,-0.03,0.73,12
1415534,-3.47,-3.35,8.96,0.23,0.14,0.25,32.00,4.06,-22.62,-0.48,-0.20,0.30,-2.98,-3.15,8.66,0.64,-0.23,-0.02,0.74,12
1415571,-2.63,-3.12,8.57,0.49,-0.25,-1.13,34.06,4.44,-21.25,0.18,-0.03,-0.18,-2.81,-3.09,8.75,0.65,-0.22,-0.02,0.73,12
1415611,-3.20,-3.43,9.50,0.90,-0.84,-0.96,32.69,2.69,-22.81,-0.70,-0.45,0.61,-2.50,-2.98,8.88,0.67,-0.20,-0.02,0.72,12
1415655,-2.25,-3.32,9.80,1.80,-0.71,-0.38,25.81,0.44,-25.00,-0.46,-1.51,1.41,-2.09,-2.57,9.12,0.68,-0.17,-0.02,0.71,12
1415695,-1.79,-1.63,8.50,1.73,-0.27,-0.46,25.94,-2.75,-24.44,-0.36,-1.42,0.48,-1.88,-1.90,9.32,0.69,-0.14,-0.00,0.71,12
1415731,-2.55,-0.63,8.16,0.94,-0.33,-0.44,25.19,-3.75,-23.06,-0.78,0.79,-1.28,-1.77,-1.42,9.44,0.70,-0.12,0.01,0.70,12
1415771,-2.40,-0.10,7.81,0.23,-0.29,-0.25,24.31,-4.94,-24.94,-0.78,1.14,-1.68,-1.62,-1.23,9.49,0.71,-0.11,0.02,0.70,12
1415815,-1.79,-0.56,8.50,-0.27,-0.09,-0.29,23.31,-5.31,-25.06,-0.34,0.84,-1.65,-1.56,-1.20,9.50,0.71,-0.10,0.02,0.69,12
1415855,-1.36,-1.55,10.07,-0.73,0.42,-0.17,25.00,-1.94,-25.69,-0.21,0.88,-0.96,-1.58,-1.44,9.46,0.72,-0.11,0.01,0.69,12
1415891,-2.32,-1.67,9.61,-0.72,0.62,0.18,27.31,-1.88,-22.56,-0.53,0.07,0.24,-1.79,-1.73,9.37,0.71,-0.13,0.00,0.69,12
1415931,-2.63,-1.97,9.57,-0.92,-0.29,-0.10,27.56,-0.56,-24.75,-0.72,0.04,0.28,-1.91,-2.02,9.29,0.71,-0.15,-0.00,0.69,12
1415975,-1.82,-1.97,8.96,-0.96,-0.06,-0.11,26.81,1.38,-24.94,0.20,-0.38,1.07,-1.87,-2.32,9.23,0.71,-0.16,-0.01,0.69,12
1416015,-1.94,-3.24,9.69,-0.06,-0.35,0.22,28.69,2.44,-25.12,0.03,0.72,-0.16,-1.85,-2.70,9.12,0.71,-0.17,-0.03,0.69,12
1416051,-1.55,-2.62,9.45,-0.15,0.06,0.11,28.88,4.44,-23.38,0.29,0.09,0.34,-1.84,-2.71,9.12,0.70,-0.17,-0.03,0.69,12
1416091,-2.05,-2.70,8.96,-0.00,-0.03,0.01,27.94,2.69,-24.88,-0.20,0.02,-0.15,-1.86,-2.72,9.11,0.70,-0.17,-0.03,0.69,12
1416136,-1.55,-2.66,9.11,0.21,-0.05,0.09,27.50,3.19,-24.94,-0.22,0.02,-0.28,-1.84,-2.68,9.12,0.70,-0.17,-0.03,0.69,12
1416175,-2.25,-2.59,9.54,0.06,-0.77,0.06,29.00,4.50,-24.81,0.18,-0.09,-0.07,-1.73,-2.57,9.18,0.70,-0.16,-0.03,0.69,12
1416211,-1.40,-2.66,9.19,0.20,-0.83,-0.48,25.81,2.19,-24.00,0.07,-0.12,-0.05,-1.47,-2.55,9.23,0.70,-0.15,-0.04,0.69,12
1416252,-1.32,-2.59,9.38,0.65,-0.31,0.08,24.56,1.56,-25.56,0.01,-0.17,0.09,-1.34,-2.41,9.29,0.71,-0.14,-0.04,0.69,12
1416296,-1.36,-2.05,9.19,0.65,-0.17,0.14,25.38,0.75,-25.44,-0.48,-0.10,-0.01,-1.27,-2.18,9.35,0.71,-0.13,-0.03,0.70,12
1416335,-1.40,-1.48,8.65,0.01,0.28,0.32,24.00,0.31,-25.25,-0.04,-0.06,-0.21,-1.32,-1.99,9.40,0.70,-0.12,-0.03,0.70,12
1416373,-1.52,-1.40,8.46,-1.01,0.75,0.14,26.00,1.31,-24.31,0.03,0.77,-0.85,-1.55,-2.17,9.31,0.70,-0.14,-0.02,0.70,12
1416413,-1.98,-3.51,11.14,-0.27,-0.03,-0.11,28.50,2.38,-24.06,-0.34,-1.17,1.89,-1.64,-2.34,9.26,0.70,-0.15,-0.03,0.70,12
1416457,-1.90,-2.43,9.15,-0.11,0.15,-0.03,25.88,2.25,-25.81,0.48,0.25,-0.16,-1.65,-2.41,9.23,0.70,-0.15,-0.03,0.70,12
1416496,-1.75,-2.36,9.19,-0.13,-0.03,0.00,26.62,2.88,-24.62,-0.23,0.02,-0.07,-1.67,-2.45,9.23,0.70,-0.15,-0.03,0.70,12
1416533,-1.63,-2.51,9.19,-0.07,0.09,-0.03,28.69,3.56,-23.75,0.06,-0.01,-0.02,-1.70,-2.50,9.20,0.70,-0.16,-0.03,0.70,12
1416573,-1.86,-2.51,9.15,-0.05,0.00,-0.01,27.00,2.94,-25.00,-0.17,0.00,-0.04,-1.70,-2.52,9.20,0.70,-0.16,-0.03,0.70,12
1416615,-1.63,-2.47,9.23,-0.04,0.05,-0.01,29.56,2.88,-25.75,0.08,0.06,0.03,-1.71,-2.53,9.20,0.70,-0.16,-0.03,0.70,12
1416652,-1.79,-2.47,9.19,-0.02,-0.01,-0.01,28.12,2.31,-23.31,-0.07,0.07,0.00,-1.71,-2.55,9.19,0.70,-0.16,-0.03,0.70,12
1416693,-1.79,-2.55,9.19,-0.03,0.01,0.00,28.00,2.88,-21.94,-0.07,-0.00,0.00,-1.72,-2.55,9.19,0.70,-0.16,-0.03,0.70,12
1416733,-1.75,-2.51,9.19,-0.03,0.01,-0.01,27.81,2.38,-25.19,-0.03,0.04,0.00,-1.72,-2.55,9.19,0.70,-0.16,-0.03,0.70,12
1416775,-1.75,-2.55,9.11,-0.01,0.01,-0.01,29.00,3.25,-24.00,-0.02,0.01,-0.07,-1.73,-2.56,9.18,0.70,-0.16,-0.03,0.70,12
1416812,-1.79,-2.55,9.19,-0.00,-0.01,-0.01,27.31,2.06,-25.25,-0.06,0.01,0.01,-1.73,-2.56,9.18,0.70,-0.16,-0.03,0.70,12
1416853,-1.75,-2.55,9.19,-0.00,0.01,0.00,28.06,2.81,-21.56,0.01,-0.07,0.02,-1.76,-2.48,9.17,0.70,-0.16,-0.03,0.70,12
1416893,-1.79,-2.55,9.19,-0.00,0.01,-0.00,27.00,3.19,-25.38,-0.03,-0.06,0.02,-1.76,-2.49,9.17,0.70,-0.16,-0.03,0.70,12
1416935,-1.82,-2.55,9.11,0.01,-0.01,-0.00,26.62,3.12,-24.62,-0.07,-0.05,-0.06,-1.76,-2.50,9.17,0.70,-0.16,-0.03,0.70,12
1416972,-1.71,-2.55,9.15,0.00,0.02,0.01,26.12,4.00,-25.50,0.05,-0.04,-0.02,-1.76,-2.51,9.17,0.70,-0.16,-0.03,0.70,12
1417013,-1.82,-2.51,9.19,0.00,-0.02,-0.00,29.06,3.00,-23.25,-0.06,-0.00,0.02,-1.77,-2.51,9.17,0.70,-0.16,-0.03,0.70,12
1417053,-1.75,-2.55,9.15,-0.00,-0.00,0.00,27.44,3.19,-25.31,0.01,-0.04,-0.02,-1.76,-2.52,9.17,0.70,-0.16,-0.03,0.70,12
1417097,-1.79,-2.51,9.19,-0.00,-0.01,-0.01,29.38,3.06,-24.31,-0.02,-0.04,0.01,-1.77,-2.52,9.18,0.70,-0.16,-0.03,0.70,12
1417136,-1.75,-2.51,9.19,-0.00,-0.00,-0.01,26.94,2.31,-25.00,-0.03,0.01,0.01,-1.76,-2.52,9.18,0.70,-0.16,-0.03,0.70,12
1417173,-1.79,-2.59,9.15,-0.02,-0.01,-0.02,28.00,3.12,-21.94,-0.03,-0.05,-0.04,-1.76,-2.53,9.19,0.70,-0.16,-0.03,0.70,12
1417213,-1.75,-2.59,9.19,-0.03,0.00,-0.02,27.19,2.56,-23.88,0.01,-0.04,0.02,-1.76,-2.55,9.17,0.70,-0.16,-0.03,0.70,12
1417255,-1.71,-2.55,9.15,-0.02,0.01,-0.01,26.94,2.94,-25.31,0.05,0.01,-0.02,-1.76,-2.56,9.17,0.70,-0.16,-0.03,0.70,12
1417292,-1.86,-2.55,9.11,0.01,-0.01,-0.01,26.31,3.38,-24.00,-0.11,0.01,-0.06,-1.76,-2.56,9.17,0.70,-0.16,-0.03,0.70,12
1417333,-1.71,-2.59,9.19,0.01,0.02,-0.00,26.31,1.56,-22.75,0.05,-0.02,0.02,-1.76,-2.56,9.17,0.70,-0.16,-0.03,0.70,12
1417374,-1.82,-2.55,9.15,0.01,-0.02,0.00,26.19,2.81,-24.38,-0.06,0.01,-0.02,-1.77,-2.56,9.17,0.70,-0.16,-0.03,0.70,12
1417416,-1.71,-2.55,9.19,0.00,0.00,0.01,28.06,3.50,-24.50,0.05,0.00,0.02,-1.76,-2.55,9.17,0.70,-0.16,-0.03,0.70,12
1417453,-1.71,-2.59,9.11,0.01,0.01,0.01,28.06,3.25,-24.50,0.05,-0.03,-0.07,-1.76,-2.55,9.18,0.70,-0.16,-0.03,0.70,12
1417494,-1.82,-2.51,9.15,0.01,-0.02,-0.01,26.75,2.19,-23.12,-0.07,0.04,-0.02,-1.76,-2.55,9.17,0.70,-0.16,-0.03,0.70,12
1417534,-1.63,-2.59,9.11,0.00,0.03,0.01,28.56,3.88,-24.44,0.12,-0.03,-0.07,-1.76,-2.55,9.18,0.70,-0.16,-0.03,0.70,12
1417576,-1.75,-2.59,9.11,0.01,-0.00,0.00,27.81,2.69,-25.56,0.01,-0.03,-0.05,-1.76,-2.55,9.16,0.70,-0.16,-0.03,0.70,12
1417614,-1.86,-2.55,9.27,-0.01,0.01,0.00,27.06,2.25,-24.19,-0.11,0.00,0.11,-1.76,-2.55,9.16,0.70,-0.16,-0.03,0.70,12
1417654,-1.75,-2.59,9.11,0.00,0.01,0.00,26.38,3.94,-24.06,0.00,-0.03,-0.06,-1.75,-2.55,9.17,0.70,-0.16,-0.03,0.70,12
1417694,-1.79,-2.62,9.11,0.01,-0.00,0.00,27.12,2.88,-24.25,-0.04,-0.07,-0.06,-1.75,-2.55,9.17,0.70,-0.16,-0.03,0.70,12
1417734,-1.75,-2.55,9.23,0.00,0.00,0.00,26.12,3.06,-25.12,0.01,0.00,0.07,-1.76,-2.55,9.16,0.70,-0.16,-0.03,0.70,12
1417774,-1.79,-2.51,9.19,-0.00,-0.01,-0.00,27.56,3.19,-24.56,-0.02,0.05,0.02,-1.77,-2.56,9.17,0.70,-0.16,-0.03,0.70,12
1417814,-1.75,-2.59,9.15,0.00,0.00,0.00,29.69,3.56,-22.50,0.01,-0.02,-0.02,-1.76,-2.56,9.17,0.70,-0.16,-0.03,0.70,12
1417854,-1.75,-2.55,9.19,-0.01,0.00,0.01,27.19,3.44,-24.25,0.01,0.01,0.02,-1.76,-2.56,9.17,0.70,-0.16,-0.03,0.70,12
1419629,-1.75,-2.55,9.19,0.00,0.00,0.00,29.19,3.44,-20.75,0.02,-0.01,0.02,-1.77,-2.54,9.17,0.70,-0.16,-0.03,0.70,12
1419670,-1.79,-2.55,9.15,-0.00,-0.01,0.00,28.56,3.12,-21.12,0.01,-0.01,-0.03,-1.76,-2.54,9.18,0.70,-0.16,-0.03,0.70,12
1419709,-1.75,-2.55,9.19,0.00,0.01,0.00,26.31,2.69,-21.44,0.01,-0.01,0.01,-1.76,-2.54,9.18,0.70,-0.16,-0.03,0.70,12
1419749,-1.79,-2.59,9.19,0.00,-0.00,0.00,27.62,2.81,-21.25,-0.03,-0.05,0.01,-1.76,-2.54,9.18,0.70,-0.16,-0.03,0.70,12
1419789,-1.79,-2.55,9.15,0.00,0.00,0.00,27.88,2.56,-22.31,-0.02,-0.01,-0.03,-1.77,-2.54,9.18,0.70,-0.16,-0.03,0.70,12
1419831,-1.79,-2.55,9.15,0.00,0.01,0.00,27.44,2.50,-22.00,0.01,0.04,0.02,-1.76,-2.55,9.17,0.70,-0.16,-0.03,0.70,12
1419871,-1.79,-2.55,9.15,0.00,-0.01,-0.00,28.44,2.88,-21.88,-0.02,-0.00,-0.02,-1.77,-2.55,9.17,0.70,-0.16,-0.03,0.70,12
1419909,-1.71,-2.55,9.19,-0.00,0.01,0.01,26.50,2.75,-22.50,0.06,-0.00,0.02,-1.77,-2.55,9.17,0.70,-0.16,-0.03,0.70,12
1419949,-1.79,-2.55,9.19,0.00,-0.00,0.00,27.12,3.00,-21.69,-0.02,-0.01,0.02,-1.77,-2.54,9.17,0.70,-0.16,-0.03,0.70,12
1419991,-1.75,-2.55,9.15,0.00,-0.00,-0.00,28.81,2.31,-21.81,-0.02,-0.01,0.02,-1.77,-2.54,9.17,0.70,-0.16,-0.03,0.70,12
1420032,-1.75,-2.55,9.15,0.00,0.00,0.00,28.88,3.19,-22.19,0.01,-0.00,-0.03,-1.76,-2.55,9.18,0.70,-0.16,-0.03,0.70,12
1420069,-1.79,-2.55,9.19,0.00,0.00,0.00,26.62,2.44,-21.38,-0.03,-0.00,0.01,-1.76,-2.55,9.18,0.70,-0.16,-0.03,0.70,12
1420109,-1.79,-2.55,9.23,0.00,0.00,0.00,29.00,3.50,-21.88,-0.03,-0.00,0.06,-1.76,-2.55,9.17,0.70,-0.16,-0.03,0.70,12
1420152,-1.71,-2.59,9.11,0.00,-0.00,-0.00,28.06,2.81,-21.19,-0.02,-0.01,-0.06,-1.77,-2.54,9.17,0.70,-0.16,-0.03,0.70,12
1420192,-1.79,-2.55,9.27,-0.00,0.02,0.01,29.88,3.25,-21.31,-0.02,-0.01,0.10,-1.77,-2.54,9.17,0.70,-0.16,-0.03,0.70,12
1420230,-1.82,-2.47,9.19,-0.00,-0.02,-0.00,28.25,4.31,-21.25,-0.06,0.07,0.01,-1.77,-2.55,9.18,0.70,-0.16,-0.03,0.70,12
1420270,-1.75,-2.55,9.15,-0.00,0.00,0.00,27.00,2.75,-22.06,0.02,-0.00,-0.03,-1.77,-2.55,9.18,0.70,-0.16,-0.03,0.70,12
1420312,-1.79,-2.51,9.19,0.00,0.01,0.00,29.12,3.25,-23.25,0.02,-0.08,-0.03,-1.77,-2.55,9.18,0.70,-0.16,-0.03,0.70,12
1420352,-1.79,-2.51,9.23,-0.00,-0.01,0.00,28.00,2.88,-21.94,-0.02,0.04,0.01,-1.77,-2.55,9.18,0.70,-0.16,-0.03,0.70,12
1420390,-1.75,-2.59,9.15,0.00,0.01,0.00,28.50,2.88,-21.50,0.02,-0.04,-0.03,-1.77,-2.55,9.18,0.70,-0.16,-0.03,0.70,12
1420430,-1.79,-2.59,9.11,0.00,-0.00,-0.00,26.50,2.12,-22.12,-0.02,-0.04,-0.07,-1.77,-2.55,9.18,0.70,-0.16,-0.03,0.70,12
1420473,-1.79,-2.51,9.23,-0.00,-0.00,0.00,27.50,2.81,-22.00,0.02,0.04,0.01,-1.77,-2.55,9.18,0.70,-0.16,-0.03,0.70,12
1420512,-1.79,-2.59,9.15,0.00,0.00,0.00,26.62,3.00,-21.81,-0.02,0.04,0.05,-1.77,-2.55,9.18,0.70,-0.16,-0.03,0.70,12
1420550,-1.75,-2.51,9.15,0.00,-0.01,-0.00,28.06,1.88,-20.81,0.02,0.04,-0.03,-1.77,-2.55,9.18,0.70,-0.16,-0.03,0.70,12
1420590,-1.75,-2.51,9.19,0.00,0.01,0.01,28.38,3.44,-22.62,0.03,0.04,0.01,-1.77,-2.55,9.18,0.70,-0.16,-0.03,0.70,12
1420632,-1.75,-2.55,9.15,0.00,-0.00,-0.01,27.62,3.69,-22.06,-0.02,-0.02,0.01,-1.77,-2.53,9.18,0.70,-0.16,-0.03,0.70,12
1420672,-1.75,-2.55,9.15,0.00,0.00,-0.00,28.00,2.88,-21.94,0.03,-0.02,-0.03,-1.77,-2.53,9.18,0.70,-0.16,-0.03,0.70,12
1420710,-1.79,-2.55,9.23,-0.00,0.01,0.00,26.56,2.75,-22.12,-0.02,-0.01,0.06,-1.77,-2.54,9.17,0.70,-0.16,-0.03,0.70,12
1420750,-1.82,-2.47,9.19,0.00,-0.01,0.00,28.50,2.25,-21.12,-0.05,0.06,0.01,-1.77,-2.53,9.18,0.70,-0.16,-0.03,0.70,12
1420793,-1.79,-2.59,9.15,0.00,-0.00,0.00,28.00,2.88,-21.94,0.03,-0.01,0.05,-1.77,-2.54,9.18,0.70,-0.16,-0.03,0.70,12
1420833,-1.75,-2.51,9.15,0.00,-0.01,-0.00,25.75,2.69,-21.81,-0.01,-0.05,-0.03,-1.77,-2.54,9.18,0.70,-0.16,-0.03,0.70,12
1420871,-1.75,-2.51,9.19,0.00,0.01,0.01,25.25,2.00,-21.50,0.03,0.03,0.00,-1.77,-2.54,9.19,0.70,-0.16,-0.03,0.70,12
1420911,-1.82,-2.55,9.23,-0.01,-0.02,-0.00,28.38,2.25,-21.88,-0.05,-0.01,0.05,-1.77,-2.54,9.18,0.70,-0.16,-0.03,0.70,12
1420953,-1.71,-2.47,9.23,0.01,0.01,0.00,27.94,1.94,-21.50,0.02,-0.05,-0.15,-1.77,-2.54,9.19,0.70,-0.16,-0.03,0.70,12
1420993,-1.82,-2.55,9.27,-0.00,-0.01,0.01,27.00,2.50,-22.06,0.06,0.06,0.05,-1.77,-2.53,9.18,0.70,-0.16,-0.03,0.70,12
1421031,-1.79,-2.59,9.15,-0.00,-0.02,-0.01,27.44,2.50,-22.00,-0.02,-0.05,-0.04,-1.77,-2.54,9.19,0.70,-0.16,-0.03,0.70,12
1421071,-1.71,-2.55,9.08,0.00,0.02,0.00,27.56,2.50,-21.25,0.06,-0.01,-0.11,-1.77,-2.54,9.19,0.70,-0.16,-0.03,0.70,12
1421114,-1.82,-2.51,9.23,-0.01,0.00,0.00,27.56,3.38,-22.00,0.02,-0.01,0.06,-1.77,-2.54,9.17,0.70,-0.16,-0.03,0.70,12
1421153,-1.79,-2.55,9.15,0.00,-0.01,-0.01,28.94,1.69,-20.69,-0.06,0.03,0.04,-1.77,-2.54,9.19,0.70,-0.16,-0.03,0.70,12
1421191,-1.71,-2.55,9.15,0.00,0.01,0.00,28.56,2.25,-20.75,0.06,-0.01,-0.04,-1.77,-2.54,9.19,0.70,-0.16,-0.03,0.70,12
1421231,-1.79,-2.55,9.19,0.00,-0.01,0.00,27.69,3.94,-21.62,-0.01,-0.01,0.01,-1.77,-2.54,9.18,0.70,-0.16,-0.03,0.70,12
1421273,-1.71,-2.55,9.15,0.00,0.00,0.00,28.25,4.31,-21.25,-0.02,0.03,0.00,-1.77,-2.54,9.19,0.70,-0.16,-0.03,0.70,12
1421313,-1.75,-2.51,9.19,-0.00,-0.00,0.00,29.81,3.56,-22.12,0.06,-0.01,-0.03,-1.77,-2.54,9.18,0.70,-0.16,-0.03,0.70,12
1421351,-1.79,-2.55,9.23,0.00,0.01,0.01,29.31,2.62,-21.38,-0.02,-0.02,0.05,-1.77,-2.53,9.18,0.70,-0.16,-0.03,0.70,12
1421391,-1.79,-2.51,9.23,0.00,-0.02,-0.01,28.38,2.56,-22.25,-0.02,0.03,0.04,-1.77,-2.54,9.19,0.70,-0.16,-0.03,0.70,12
1421433,-1.71,-2.55,9.23,-0.00,0.01,0.00,27.38,2.19,-22.31,0.01,-0.01,-0.04,-1.76,-2.54,9.19,0.70,-0.16,-0.03,0.70,12
1421473,-1.79,-2.55,9.11,0.00,-0.00,0.00,29.69,2.69,-22.06,0.05,-0.01,0.04,-1.76,-2.54,9.19,0.70,-0.16,-0.03,0.70,12
1421511,-1.75,-2.55,9.15,0.00,0.00,-0.00,29.12,3.44,-21.12,0.01,-0.01,-0.04,-1.76,-2.54,9.19,0.70,-0.16,-0.03,0.70,12
1421551,-1.79,-2.55,9.19,-0.00,0.00,0.00,29.19,2.69,-22.12,-0.03,-0.01,0.00,-1.76,-2.54,9.19,0.70,-0.16,-0.03,0.70,12
1421593,-1.79,-2.55,9.15,0.00,-0.00,-0.00,27.06,3.62,-22.44,-0.03,0.03,0.00,-1.76,-2.54,9.19,0.70,-0.16,-0.03,0.70,12
1421633,-1.75,-2.55,9.15,0.00,0.01,0.00,29.44,3.19,-21.06,-0.02,-0.02,-0.03,-1.77,-2.53,9.18,0.70,-0.16,-0.03,0.70,12
1421671,-1.79,-2.55,9.23,0.00,-0.00,0.00,29.12,3.44,-21.12,-0.02,-0.02,0.05,-1.77,-2.53,9.18,0.70,-0.16,-0.03,0.70,12
1421711,-1.79,-2.51,9.23,-0.01,0.00,0.00,27.94,2.88,-22.31,-0.02,0.02,0.04,-1.77,-2.53,9.19,0.70,-0.16,-0.03,0.70,12
1421753,-1.75,-2.55,9.15,0.00,0.00,0.00,28.00,3.12,-21.94,-0.02,-0.02,0.00,-1.77,-2.53,9.19,0.70,-0.16,-0.03,0.70,12
1421793,-1.79,-2.51,9.19,0.00,-0.01,-0.00,29.31,2.94,-21.81,0.02,-0.02,-0.04,-1.77,-2.53,9.19,0.70,-0.16,-0.03,0.70,12
1421832,-1.75,-2.55,9.19,-0.00,0.00,0.00,27.38,1.62,-21.94,0.02,-0.02,0.01,-1.77,-2.53,9.18,0.70,-0.16,-0.03,0.70,12
1421872,-1.75,-2.55,9.11,0.00,-0.00,-0.00,28.56,3.12,-21.50,0.02,-0.02,-0.07,-1.77,-2.53,9.19,0.70,-0.16,-0.03,0.70,12
1421912,-1.75,-2.51,9.15,0.00,0.00,0.00,29.12,3.25,-22.94,0.02,0.02,-0.04,-1.77,-2.53,9.19,0.70,-0.16,-0.03,0.70,12
1421954,-1.79,-2.55,9.15,-0.00,0.01,-0.00,28.38,3.19,-22.69,0.02,-0.02,0.01,-1.77,-2.53,9.18,0.70,-0.16,-0.03,0.70,12
1421992,-1.79,-2.55,9.15,0.00,-0.00,-0.00,28.81,2.62,-22.19,-0.02,-0.01,-0.02,-1.77,-2.54,9.17,0.70,-0.16,-0.03,0.70,12
1422032,-1.75,-2.55,9.23,-0.00,0.00,0.00,29.38,4.12,-22.19,0.02,-0.01,0.06,-1.77,-2.54,9.17,0.70,-0.16,-0.03,0.70,12
1422072,-1.79,-2.51,9.23,0.00,-0.01,-0.00,28.81,4.12,-23.31,-0.02,0.03,0.06,-1.77,-2.54,9.17,0.70,-0.16,-0.03,0.70,12
1422114,-1.71,-2.51,9.19,-0.00,-0.00,0.00,27.88,3.12,-22.75,-0.02,0.02,0.00,-1.77,-2.53,9.19,0.70,-0.16,-0.03,0.70,12
1422152,-1.79,-2.59,9.19,-0.00,-0.00,0.00,29.00,2.94,-21.44,-0.02,-0.05,0.00,-1.77,-2.54,9.19,0.70,-0.16,-0.03,0.70,12
1422192,-1.79,-2.55,9.15,0.00,0.00,0.00,28.38,3.44,-22.62,-0.02,-0.02,-0.04,-1.77,-2.53,9.19,0.70,-0.16,-0.03,0.70,12
1422232,-1.75,-2.51,9.15,0.00,-0.02,0.00,30.19,3.06,-22.00,0.02,0.02,-0.04,-1.77,-2.53,9.19,0.70,-0.16,-0.03,0.70,12
1422274,-1.75,-2.59,9.19,0.00,0.02,0.00,27.12,3.62,-22.12,-0.02,-0.01,0.00,-1.77,-2.54,9.19,0.70,-0.16,-0.03,0.70,12
1422312,-1.82,-2.51,9.15,0.00,-0.01,-0.00,27.69,2.56,-23.38,-0.06,0.02,-0.04,-1.77,-2.53,9.19,0.70,-0.16,-0.03,0.70,12
1422352,-1.75,-2.55,9.19,0.00,0.01,0.00,29.69,3.25,-22.50,0.02,-0.01,0.00,-1.77,-2.54,9.19,0.70,-0.16,-0.03,0.70,12
1422393,-1.79,-2.59,9.19,0.00,-0.01,-0.00,27.31,3.44,-23.50,-0.02,-0.05,0.01,-1.77,-2.54,9.18,0.70,-0.16,-0.03,0.70,12
1422434,-1.75,-2.51,9.19,0.00,-0.01,-0.01,26.94,3.06,-22.81,-0.06,0.03,0.01,-1.77,-2.54,9.18,0.70,-0.16,-0.03,0.70,12
1422472,-1.75,-2.55,9.15,-0.00,-0.00,0.00,27.88,3.44,-23.06,0.02,-0.01,-0.04,-1.77,-2.54,9.19,0.70,-0.16,-0.03,0.70,12
1422512,-1.75,-2.55,9.15,-0.00,-0.00,-0.00,28.38,3.44,-22.69,0.02,-0.02,-0.03,-1.77,-2.53,9.18,0.70,-0.16,-0.03,0.70,12
1422552,-1.79,-2.51,9.19,0.00,-0.01,-0.00,28.38,3.44,-22.69,-0.02,0.02,0.01,-1.77,-2.53,9.18,0.70,-0.16,-0.03,0.70,12
1422594,-1.71,-2.59,9.19,-0.00,-0.00,-0.00,27.88,4.06,-23.44,-0.03,-0.01,0.01,-1.76,-2.54,9.18,0.70,-0.16,-0.03,0.70,12
1422632,-1.75,-2.55,9.15,-0.00,0.00,0.00,28.31,3.19,-23.00,0.01,-0.00,-0.03,-1.76,-2.55,9.18,0.70,-0.16,-0.03,0.70,12
1422672,-1.79,-2.55,9.23,-0.00,0.00,0.00,29.19,3.56,-22.94,-0.03,-0.00,0.05,-1.76,-2.55,9.18,0.70,-0.16,-0.03,0.70,12
1422712,-1.79,-2.59,9.23,0.00,-0.01,-0.01,29.19,3.56,-22.94,-0.03,-0.04,0.04,-1.76,-2.55,9.19,0.70,-0.16,-0.03,0.70,12
1422754,-1.67,-2.55,9.19,0.00,-0.01,-0.00,30.19,3.06,-22.00,-0.04,0.04,-0.04,-1.75,-2.55,9.19,0.70,-0.16,-0.03,0.70,12
1422793,-1.75,-2.55,9.19,0.00,0.01,0.01,28.69,3.56,-23.75,0.01,-0.00,0.00,-1.76,-2.55,9.19,0.70,-0.16,-0.03,0.70,12
1422833,-1.75,-2.51,9.19,0.00,-0.01,-0.00,26.94,3.69,-23.19,-0.00,0.04,0.00,-1.74,-2.55,9.19,0.70,-0.16,-0.03,0.70,12
1422874,-1.71,-2.55,9.19,-0.00,0.00,0.00,28.44,3.12,-22.25,0.04,-0.01,-0.00,-1.74,-2.54,9.20,0.70,-0.16,-0.03,0.70,12
1422916,-1.75,-2.55,9.19,0.00,0.01,0.00,28.75,3.19,-22.94,0.04,-0.02,-0.04,-1.75,-2.53,9.19,0.70,-0.16,-0.03,0.70,12
1422954,-1.75,-2.51,9.23,-0.01,-0.01,0.00,26.44,2.75,-22.88,0.00,0.03,0.04,-1.75,-2.54,9.19,0.70,-0.16,-0.03,0.70,12
1422994,-1.75,-2.55,9.19,-0.00,0.01,0.01,26.25,3.38,-24.38,-0.00,-0.01,0.00,-1.74,-2.54,9.19,0.70,-0.16,-0.03,0.70,12
1423034,-1.75,-2.55,9.11,0.01,-0.00,0.00,29.31,4.12,-22.56,-0.00,-0.01,-0.07,-1.74,-2.54,9.19,0.70,-0.16,-0.03,0.70,12
1423076,-1.79,-2.55,9.23,-0.01,0.00,0.00,28.38,2.25,-21.88,0.00,-0.05,0.00,-1.75,-2.54,9.19,0.70,-0.16,-0.03,0.70,12
1423114,-1.75,-2.55,9.15,0.01,-0.02,-0.01,28.81,3.50,-23.00,-0.00,-0.01,-0.04,-1.74,-2.54,9.19,0.70,-0.16,-0.03,0.70,12
1423154,-1.71,-2.59,9.15,0.00,0.01,0.00,29.31,3.50,-22.19,0.04,-0.04,-0.04,-1.74,-2.55,9.19,0.70,-0.16,-0.03,0.70,12
1423194,-1.79,-2.51,9.19,0.00,-0.02,-0.01,27.88,4.38,-23.44,-0.04,0.04,0.00,-1.74,-2.55,9.19,0.70,-0.16,-0.03,0.70,12
1423236,-1.75,-2.59,9.19,-0.00,0.01,0.00,29.31,2.94,-21.81,0.04,0.04,0.00,-1.74,-2.55,9.19,0.70,-0.16,-0.03,0.70,12
1423275,-1.75,-2.51,9.19,0.00,-0.01,-0.00,28.94,3.50,-22.19,-0.01,0.04,0.00,-1.73,-2.55,9.19,0.70,-0.16,-0.03,0.70,12
1423314,-1.71,-2.51,9.23,-0.00,0.00,0.01,27.62,1.69,-23.00,0.03,0.04,0.04,-1.73,-2.55,9.19,0.70,-0.16,-0.03,0.70,12
1423354,-1.75,-2.59,9.19,0.00,-0.01,-0.01,28.88,3.81,-22.62,-0.00,-0.05,0.00,-1.74,-2.54,9.19,0.70,-0.16,-0.03,0.70,12
1423396,-1.67,-2.55,9.23,-0.00,-0.01,0.01,28.88,4.12,-23.00,-0.01,-0.01,-0.07,-1.73,-2.54,9.19,0.70,-0.16,-0.03,0.70,12
1423435,-1.71,-2.55,9.31,-0.03,0.05,-0.00,28.94,3.50,-22.19,0.04,-0.00,0.12,-1.75,-2.55,9.19,0.70,-0.16,-0.03,0.70,12
1423474,-1.86,-2.51,9.19,-0.03,-0.06,-0.00,28.31,3.81,-23.38,-0.12,0.04,0.00,-1.74,-2.55,9.19,0.70,-0.16,-0.03,0.70,12
1423514,-1.48,-2.55,9.23,-0.05,0.06,0.04,27.94,3.44,-22.75,0.27,0.02,0.04,-1.74,-2.57,9.20,0.70,-0.16,-0.03,0.70,12
1423556,-2.05,-2.59,9.15,-0.04,-0.03,-0.02,28.38,3.19,-22.69,-0.04,-0.08,-0.12,-1.74,-2.59,9.20,0.70,-0.16,-0.03,0.70,12
1423596,-1.59,-2.51,9.30,-0.08,-0.06,-0.03,27.38,3.06,-22.75,0.13,0.09,0.12,-1.73,-2.60,9.19,0.70,-0.16,-0.03,0.70,12
1423634,-1.44,-2.62,9.19,-0.12,0.09,0.01,26.88,3.38,-23.56,0.27,0.01,0.01,-1.71,-2.63,9.18,0.70,-0.16,-0.03,0.70,12
1423674,-1.90,-2.62,9.15,-0.11,-0.05,-0.05,27.88,3.44,-23.06,-0.17,0.05,-0.02,-1.73,-2.68,9.17,0.70,-0.16,-0.04,0.70,12
1423716,-1.52,-2.66,9.30,-0.19,-0.13,-0.06,26.62,3.62,-22.50,-0.30,0.15,0.03,-1.67,-2.73,9.16,0.70,-0.16,-0.04,0.70,12
1423756,-1.55,-2.74,9.27,-0.28,-0.10,-0.03,27.75,4.06,-24.19,0.08,0.08,0.13,-1.63,-2.82,9.14,0.70,-0.17,-0.04,0.70,12
1423794,-1.52,-2.89,9.27,-0.42,-0.14,-0.04,24.69,4.44,-24.25,0.02,0.07,0.15,-1.54,-2.96,9.12,0.69,-0.17,-0.05,0.70,12
1423834,-1.63,-2.89,9.23,-0.51,-0.15,-0.05,23.75,4.38,-24.00,-0.15,0.22,0.16,-1.48,-3.12,9.07,0.69,-0.17,-0.06,0.70,12
1423876,-1.40,-3.32,8.96,-0.58,-0.30,-0.08,24.88,5.56,-23.94,-0.29,0.24,0.14,-1.38,-3.33,9.02,0.69,-0.18,-0.07,0.70,12
1423916,-1.17,-3.58,8.73,-0.47,-0.21,-0.07,23.12,6.06,-24.12,0.12,-0.06,-0.22,-1.29,-3.52,8.95,0.69,-0.18,-0.08,0.70,12
1423955,-1.21,-3.77,8.54,-0.21,-0.18,-0.05,22.50,6.06,-25.31,0.00,-0.12,-0.38,-1.21,-3.66,8.91,0.69,-0.18,-0.09,0.69,12
1423995,-1.36,-3.89,8.54,-0.10,-0.23,-0.05,22.75,6.88,-24.25,-0.23,-0.19,-0.37,-1.13,-3.70,8.91,0.69,-0.18,-0.10,0.69,12
1424037,-0.94,-3.74,9.04,-0.12,-0.18,-0.04,21.94,6.81,-23.62,-0.04,-0.07,-0.01,-1.05,-3.74,8.90,0.69,-0.18,-0.10,0.69,12
1424077,-0.90,-3.81,8.93,-0.16,-0.16,-0.01,21.88,7.12,-24.38,0.05,0.05,0.16,-0.99,-3.79,8.88,0.69,-0.18,-0.11,0.69,12
1424115,-0.71,-3.85,8.88,-0.20,-0.15,0.04,20.38,6.44,-24.94,0.23,0.01,0.03,-0.95,-3.86,8.86,0.69,-0.18,-0.11,0.69,12
1424155,-0.64,-3.96,8.73,-0.08,0.01,0.03,22.44,6.81,-23.56,0.29,-0.05,-0.11,-0.92,-3.91,8.84,0.69,-0.18,-0.11,0.70,12
1424197,-1.02,-3.93,8.92,-0.11,-0.17,0.01,22.25,7.50,-25.06,-0.42,-0.14,-0.25,-0.91,-3.94,8.83,0.69,-0.18,-0.12,0.70,12
1424237,-0.41,-3.96,9.11,-0.38,-0.18,0.08,21.25,7.62,-23.38,-0.18,0.09,0.12,-0.84,-4.02,8.80,0.68,-0.18,-0.12,0.70,12
1424275,-0.75,-3.96,8.96,-0.70,-0.15,0.15,21.25,8.81,-24.19,0.06,0.23,0.24,-0.81,-4.20,8.72,0.68,-0.19,-0.13,0.70,12
1424315,-0.79,-4.20,9.11,-1.42,-0.34,0.25,20.12,10.44,-24.00,-0.03,0.37,0.57,-0.76,-4.56,8.54,0.67,-0.20,-0.15,0.70,12
1424357,-0.87,-5.42,9.04,-1.72,-0.03,0.62,20.81,11.00,-22.88,-0.18,0.01,1.16,-0.80,-5.05,8.26,0.66,-0.22,-0.17,0.70,12
1424397,-0.68,-7.49,10.84,-1.65,0.10,0.34,20.19,13.56,-23.06,0.06,0.23,1.20,-0.93,-5.65,7.84,0.64,-0.24,-0.19,0.70,12
1424435,-0.75,-7.22,9.89,0.47,-0.07,0.48,20.81,11.44,-20.75,0.33,-1.46,2.13,-1.08,-5.77,7.75,0.63,-0.25,-0.19,0.71,12
1424475,-1.06,-6.00,8.35,0.69,-0.87,0.08,21.06,8.88,-19.88,-0.07,-0.44,0.42,-0.99,-5.55,7.93,0.63,-0.24,-0.19,0.71,12
1424517,-0.71,-5.46,7.77,0.60,-1.26,-0.12,17.75,5.38,-18.62,-0.53,-0.38,-0.18,-0.64,-5.35,8.11,0.63,-0.22,-0.19,0.72,12
1424557,-0.06,-4.89,7.27,0.65,-1.61,-0.33,15.56,3.62,-16.94,-0.59,-0.31,-0.50,-0.12,-5.15,8.27,0.63,-0.19,-0.20,0.73,12
1424595,0.67,-4.54,6.93,0.34,-1.49,-0.54,13.62,2.94,-17.56,0.17,0.43,-1.44,0.50,-4.98,8.37,0.63,-0.16,-0.22,0.73,12
1424635,0.74,-4.62,6.51,0.04,-1.52,-0.17,10.81,2.31,-15.75,-0.31,0.29,-1.86,1.05,-4.91,8.37,0.63,-0.13,-0.23,0.73,12
1424677,1.39,-4.20,6.51,-0.31,-1.01,0.34,8.88,2.19,-16.62,-0.58,0.44,-2.12,1.48,-4.95,8.28,0.62,-0.11,-0.25,0.73,12
1424717,1.78,-4.66,7.39,-0.67,-0.42,0.33,9.38,3.75,-17.06,-0.24,0.95,-1.61,1.63,-5.15,8.12,0.61,-0.11,-0.27,0.73,12
1424755,1.47,-4.89,7.89,-0.42,-0.05,0.14,7.19,3.25,-16.56,-0.18,0.46,-0.09,1.65,-5.34,7.98,0.61,-0.12,-0.28,0.73,12
1424795,1.12,-5.12,7.58,-0.40,-0.25,-0.04,7.75,4.50,-16.88,-0.55,0.35,-0.31,1.68,-5.47,7.89,0.61,-0.12,-0.29,0.73,12
1424837,1.78,-5.96,7.12,-0.37,-0.33,-0.20,7.44,3.81,-15.81,-0.52,-0.18,-0.69,1.80,-5.59,7.77,0.60,-0.12,-0.30,0.73,12
1424877,1.93,-5.92,7.28,-0.42,0.00,-0.21,5.81,6.06,-16.56,-0.11,-0.28,-0.56,1.88,-5.68,7.68,0.61,-0.12,-0.30,0.73,12
1424916,2.05,-5.73,7.39,-0.48,0.01,-0.04,6.75,5.81,-16.44,0.12,0.09,-0.16,1.92,-5.82,7.55,0.61,-0.12,-0.31,0.72,12
1424956,2.47,-5.69,7.70,-0.46,0.27,0.03,6.94,7.25,-16.06,0.60,0.25,0.24,1.87,-5.95,7.46,0.61,-0.13,-0.31,0.72,12
1424998,2.28,-5.88,7.78,-0.55,0.20,-0.24,6.56,7.88,-16.12,0.66,0.17,0.46,1.80,-6.09,7.35,0.61,-0.14,-0.32,0.71,12
1425038,2.12,-6.07,7.62,-0.44,0.01,-0.41,6.12,7.50,-15.81,0.41,0.34,0.55,1.87,-6.23,7.23,0.61,-0.15,-0.33,0.71,12
1425076,2.20,-6.23,7.01,-0.34,-0.03,-0.39,6.50,8.44,-16.94,0.18,0.05,-0.12,2.02,-6.28,7.12,0.62,-0.15,-0.33,0.70,12
1425116,2.20,-6.34,6.55,-0.34,0.23,-0.08,5.75,8.31,-15.94,0.14,0.03,-0.50,2.06,-6.37,7.05,0.62,-0.15,-0.34,0.69,12
1425156,2.28,-6.50,6.62,-0.26,0.27,0.02,6.94,7.00,-16.06,0.31,-0.05,-0.36,1.97,-6.45,6.98,0.62,-0.16,-0.34,0.69,12
1425198,2.09,-6.46,6.55,-0.19,0.11,-0.21,4.38,7.38,-15.69,0.38,-0.00,-0.18,1.93,-6.49,6.95,0.62,-0.16,-0.34,0.69,12
1425236,1.93,-6.54,6.55,-0.16,0.12,-0.33,6.50,8.12,-16.56,-0.07,-0.02,-0.36,2.00,-6.52,6.91,0.63,-0.16,-0.34,0.68,12
1425276,1.78,-6.61,6.59,-0.39,0.11,-0.23,5.00,7.75,-17.06,-0.25,-0.04,-0.26,2.03,-6.57,6.84,0.63,-0.17,-0.34,0.67,12
1425316,1.70,-7.03,7.09,-0.17,0.04,-0.07,2.88,7.81,-16.62,-0.36,-0.38,0.34,2.05,-6.65,6.75,0.63,-0.17,-0.35,0.67,12
1425358,2.09,-6.69,7.28,-0.03,0.25,-0.13,3.50,6.44,-17.56,0.14,-0.49,0.82,2.02,-6.66,6.76,0.63,-0.17,-0.35,0.67,12
1425396,1.86,-6.46,6.63,-0.15,0.16,-0.13,6.38,7.56,-17.25,-0.16,0.19,-0.13,2.02,-6.65,6.76,0.64,-0.18,-0.35,0.67,12
1425436,2.09,-6.23,6.20,-0.50,0.35,-0.18,4.81,6.00,-17.00,0.10,0.50,-0.48,1.98,-6.73,6.69,0.64,-0.18,-0.35,0.66,12
1425476,1.82,-6.15,6.05,-0.78,0.42,-0.07,4.38,8.62,-19.06,-0.10,0.73,-0.50,1.91,-6.88,6.55,0.64,-0.19,-0.35,0.65,12
1425518,1.39,-6.91,6.09,-0.99,0.53,-0.13,4.50,9.50,-18.62,-0.07,0.66,-0.46,1.81,-7.12,6.32,0.64,-0.21,-0.36,0.64,12
1425556,1.24,-7.22,6.43,-0.83,0.20,-0.04,3.12,10.56,-20.00,-0.52,0.11,0.35,1.76,-7.33,6.09,0.64,-0.23,-0.37,0.63,12
1425596,1.36,-7.84,6.47,-0.55,0.24,0.21,4.31,12.12,-19.56,-0.32,-0.34,0.58,1.67,-7.50,5.89,0.64,-0.24,-0.37,0.63,12
1425636,1.32,-8.06,6.36,-0.20,0.12,0.31,4.94,12.56,-21.00,-0.24,-0.46,0.57,1.55,-7.60,5.78,0.64,-0.25,-0.37,0.63,12
1425678,1.43,-7.98,5.93,0.30,-0.05,0.54,3.69,13.00,-21.12,-0.06,-0.46,0.48,1.41,-7.61,5.80,0.63,-0.25,-0.37,0.63,12
1425717,1.55,-7.80,5.71,0.23,0.10,0.49,3.00,12.44,-22.31,0.31,-0.23,-0.20,1.23,-7.56,5.91,0.63,-0.25,-0.36,0.64,12
1425757,1.78,-7.56,5.67,0.07,0.03,0.21,4.25,12.88,-22.88,0.64,-0.02,-0.28,1.14,-7.55,5.95,0.62,-0.25,-0.36,0.65,12
1425799,1.24,-8.64,7.39,-0.31,0.15,0.31,3.12,14.50,-23.12,0.57,0.12,-0.45,1.02,-7.58,5.93,0.62,-0.26,-0.36,0.65,12
1425839,2.31,-8.95,6.51,0.50,0.54,0.39,3.62,13.12,-24.44,0.36,-1.12,1.38,0.88,-7.52,6.02,0.62,-0.26,-0.35,0.66,12
1425877,0.44,-7.95,5.32,0.38,0.50,-0.09,4.62,12.44,-25.69,-0.20,-0.51,-0.85,0.63,-7.44,6.17,0.62,-0.27,-0.33,0.66,12
1425917,-0.56,-7.07,5.36,0.06,-0.01,0.24,5.69,11.88,-24.44,-1.17,0.34,-0.85,0.61,-7.41,6.21,0.62,-0.27,-0.33,0.66,12
1425958,0.09,-7.26,6.70,0.03,0.02,0.04,5.81,13.94,-25.31,-0.47,0.14,0.49,0.56,-7.41,6.21,0.62,-0.27,-0.33,0.66,12
1426000,0.55,-7.22,6.32,0.05,-0.10,-0.04,4.19,12.06,-25.44,-0.02,0.29,0.25,0.57,-7.40,6.22,0.62,-0.27,-0.33,0.66,12
1426037,0.59,-7.26,6.32,0.13,-0.15,-0.10,6.62,12.62,-26.88,-0.03,0.12,0.08,0.62,-7.38,6.24,0.62,-0.26,-0.33,0.66,12
1426078,0.90,-7.61,6.28,0.18,-0.10,-0.05,4.00,12.44,-26.56,0.22,-0.26,-0.02,0.68,-7.34,6.30,0.62,-0.26,-0.33,0.66,12
1426118,0.90,-7.61,6.24,0.09,-0.06,0.02,4.50,12.12,-26.06,0.20,-0.30,-0.09,0.70,-7.30,6.33,0.62,-0.25,-0.33,0.66,12
1426160,0.67,-7.38,6.24,0.06,-0.01,0.03,4.88,11.88,-26.38,0.20,-0.20,-0.19,0.70,-7.29,6.35,0.62,-0.25,-0.33,0.66,12
1426197,0.78,-7.34,6.36,0.04,-0.04,0.02,4.00,12.12,-26.50,0.08,-0.06,-0.01,0.70,-7.27,6.37,0.62,-0.25,-0.33,0.66,12
1426238,0.78,-7.26,6.47,0.05,0.01,-0.04,4.69,11.31,-27.06,0.09,0.00,0.10,0.70,-7.27,6.38,0.62,-0.25,-0.33,0.66,12
1426278,0.59,-7.26,6.36,0.01,-0.07,-0.06,4.19,11.56,-27.56,-0.14,-0.00,-0.03,0.73,-7.26,6.38,0.62,-0.25,-0.33,0.66,12
1426320,0.78,-7.26,6.43,0.01,-0.12,-0.10,2.25,11.62,-26.00,-0.07,-0.08,-0.06,0.78,-7.26,6.38,0.62,-0.25,-0.33,0.66,12
1426358,1.01,-7.38,6.28,-0.00,-0.13,-0.05,2.19,11.38,-26.31,0.17,-0.12,-0.10,0.84,-7.26,6.38,0.62,-0.25,-0.33,0.66,12
1426398,1.20,-7.38,6.32,0.00,0.02,0.01,3.81,10.94,-26.81,0.34,-0.12,-0.06,0.86,-7.26,6.38,0.62,-0.25,-0.33,0.66,12
1426438,1.09,-7.30,6.36,0.04,-0.02,0.05,3.81,10.94,-26.81,0.24,-0.05,-0.04,0.85,-7.25,6.39,0.62,-0.25,-0.33,0.66,12
1426480,0.78,-7.14,6.47,0.04,0.03,0.02,2.56,10.19,-25.88,0.18,-0.13,-0.12,0.83,-7.24,6.40,0.62,-0.25,-0.33,0.67,12
1426518,0.74,-7.22,6.39,0.12,-0.12,-0.04,1.75,11.06,-26.00,-0.11,0.00,-0.02,0.85,-7.23,6.41,0.62,-0.24,-0.33,0.67,12
1426558,0.82,-7.18,6.39,0.02,-0.12,-0.11,1.00,10.75,-27.56,-0.08,0.02,-0.04,0.90,-7.20,6.43,0.62,-0.24,-0.33,0.67,12
1426598,0.90,-7.14,6.51,0.05,-0.19,-0.11,1.00,10.75,-27.56,-0.09,0.05,0.07,0.98,-7.20,6.44,0.62,-0.24,-0.33,0.67,12
1426640,1.24,-7.30,6.36,0.04,-0.06,-0.08,1.00,9.81,-26.75,0.16,-0.16,-0.04,1.04,-7.18,6.44,0.62,-0.24,-0.34,0.67,12
