timestamp,accel_x,accel_y,accel_z,gyro_x,gyro_y,gyro_z,mag_x,mag_y,mag_z,linacc_x,linacc_y,linacc_z,grav_x,grav_y,grav_z,gamerot_w,gamerot_x,gamerot_y,gamerot_z,label
timestamp,accel_x,accel_y,accel_z,gyro_x,gyro_y,gyro_z,mag_x,mag_y,mag_z,linacc_x,linacc_y,linacc_z,grav_x,grav_y,grav_z,gamerot_w,gamerot_x,gamerot_y,gamerot_z,12
693662,0.64,3.23,8.95,0.09,0.03,-0.37,25.06,-9.81,-11.25,3.38,-0.13,0.31,-2.73,3.36,8.65,0.98,0.16,0.14,0.05,12
693704,-1.27,2.42,10.38,0.48,0.26,-0.39,27.38,-8.88,-13.94,1.57,-1.04,1.81,-2.84,3.46,8.56,0.97,0.16,0.15,0.04,12
693742,-2.57,3.45,8.39,0.12,0.06,-0.30,27.56,-8.94,-12.81,0.37,-0.09,-0.11,-2.95,3.54,8.49,0.97,0.17,0.16,0.04,12
693782,-2.92,3.30,9.03,0.03,-0.08,-0.04,28.69,-9.25,-10.81,0.02,-0.25,0.54,-2.94,3.55,8.49,0.97,0.17,0.16,0.03,12
693822,-2.27,3.38,8.85,-0.13,0.02,-0.10,29.81,-7.38,-11.19,0.65,-0.14,0.34,-2.92,3.52,8.51,0.97,0.17,0.16,0.03,12
693865,-1.89,3.26,9.23,-0.02,0.13,-0.16,27.12,-9.88,-12.06,1.07,-0.22,0.72,-2.95,3.48,8.51,0.97,0.17,0.16,0.03,12
693902,-2.46,3.15,9.15,0.08,0.22,-0.02,27.25,-9.62,-11.38,0.55,-0.32,0.66,-3.02,3.47,8.49,0.97,0.17,0.16,0.03,12
693942,-2.61,3.30,8.81,0.05,-0.04,0.00,27.56,-7.88,-11.12,0.43,-0.21,0.34,-3.05,3.51,8.47,0.97,0.17,0.16,0.03,12
693982,-2.08,3.45,9.15,0.22,-0.53,-0.21,28.25,-8.94,-11.62,0.85,-0.06,0.65,-2.93,3.52,8.50,0.97,0.17,0.16,0.03,12
694022,-1.31,3.19,9.92,0.20,-0.30,-0.58,28.25,-8.06,-12.06,1.50,-0.37,1.39,-2.81,3.55,8.52,0.97,0.17,0.15,0.02,12
694062,-1.96,3.53,7.73,-0.12,0.36,-0.55,28.25,-8.38,-12.06,0.93,0.03,-0.79,-2.90,3.50,8.52,0.97,0.17,0.15,0.01,12
694102,-3.30,3.38,8.65,-0.31,0.23,-0.01,27.12,-9.12,-10.00,-0.23,0.00,0.14,-3.07,3.38,8.51,0.97,0.17,0.16,0.00,12
694142,-3.61,2.92,10.00,-0.22,0.04,0.19,29.75,-8.00,-11.19,-0.52,-0.43,1.48,-3.09,3.35,8.51,0.97,0.17,0.17,0.01,12
694183,-2.84,3.23,8.89,-0.15,0.03,0.32,29.19,-9.19,-10.81,0.21,-0.09,0.35,-3.05,3.32,8.53,0.97,0.16,0.17,0.01,12
694223,-2.23,3.15,8.99,0.01,-0.04,0.35,29.88,-7.06,-10.88,0.76,-0.20,0.45,-2.99,3.34,8.55,0.97,0.16,0.16,0.02,12
694263,-1.93,3.30,8.65,-0.10,0.05,0.28,28.62,-7.81,-10.25,1.01,-0.07,0.09,-2.94,3.37,8.56,0.97,0.17,0.16,0.03,12
694303,-1.62,3.23,8.85,-0.05,0.06,0.03,29.00,-9.50,-11.50,1.30,-0.12,0.27,-2.91,3.35,8.58,0.97,0.16,0.16,0.03,12
694343,-1.58,3.19,8.99,0.06,0.07,-0.04,28.56,-7.38,-13.19,1.35,-0.16,0.42,-2.93,3.34,8.58,0.97,0.16,0.16,0.03,12
694383,-2.38,3.26,8.77,-0.01,0.00,-0.00,28.62,-8.88,-11.69,0.55,-0.10,0.20,-2.94,3.36,8.57,0.97,0.17,0.17,0.03,12
694423,-2.23,3.26,8.81,-0.08,-0.02,-0.01,29.06,-9.81,-11.19,0.68,-0.07,0.22,-2.91,3.33,8.59,0.97,0.16,0.16,0.03,12
694463,-2.23,3.15,8.99,-0.05,0.04,-0.02,28.69,-8.06,-11.69,0.68,-0.15,0.39,-2.91,3.30,8.60,0.97,0.16,0.17,0.03,12
694503,-2.23,3.07,9.07,0.01,-0.02,-0.00,28.31,-7.12,-12.50,0.67,-0.23,0.47,-2.90,3.30,8.60,0.97,0.16,0.17,0.03,12
694543,-2.35,3.15,8.99,0.01,-0.06,0.04,28.06,-8.62,-12.75,0.52,-0.15,0.38,-2.87,3.30,8.62,0.97,0.16,0.16,0.03,12
694583,-2.19,3.19,8.77,-0.02,-0.11,0.03,30.19,-9.75,-9.94,0.62,-0.11,0.13,-2.81,3.30,8.63,0.97,0.16,0.16,0.03,12
694624,-2.08,3.15,9.00,0.04,-0.02,0.05,29.62,-8.25,-11.56,0.70,-0.16,0.35,-2.78,3.30,8.65,0.97,0.16,0.16,0.03,12
694664,-2.27,3.11,9.07,0.06,-0.01,0.08,29.50,-9.12,-11.56,0.49,-0.20,0.43,-2.76,3.31,8.65,0.97,0.17,0.16,0.03,12
694703,-2.19,3.19,8.96,0.07,-0.02,0.09,28.56,-8.88,-12.00,0.53,-0.16,0.30,-2.72,3.34,8.66,0.97,0.17,0.16,0.03,12
694744,-2.16,3.23,8.85,0.04,-0.01,0.07,29.25,-8.88,-10.50,0.53,-0.14,0.19,-2.69,3.37,8.66,0.97,0.17,0.16,0.03,12
694784,-2.08,3.26,8.89,-0.01,0.00,0.06,28.62,-9.25,-11.25,0.59,-0.11,0.23,-2.67,3.38,8.66,0.97,0.17,0.16,0.03,12
694826,-2.00,3.26,8.91,-0.01,0.02,0.03,28.69,-8.06,-11.69,0.66,-0.11,0.25,-2.66,3.38,8.66,0.97,0.17,0.16,0.04,12
694863,-1.89,3.26,8.92,0.03,-0.02,-0.02,28.56,-8.88,-12.00,0.75,-0.11,0.25,-2.64,3.37,8.67,0.97,0.17,0.16,0.04,12
694904,-1.50,3.38,8.92,-0.13,-0.10,-0.32,29.25,-8.56,-10.88,1.14,0.04,0.24,-2.64,3.34,8.68,0.97,0.17,0.16,0.03,12
694944,-1.85,3.34,8.84,-0.26,-0.12,-0.47,29.62,-9.19,-10.75,0.80,0.11,0.12,-2.65,3.23,8.73,0.97,0.16,0.16,0.03,12
694986,-1.81,3.30,8.15,-0.36,-0.10,-0.51,29.12,-8.56,-11.62,0.85,0.25,-0.63,-2.66,3.05,8.78,0.98,0.16,0.15,0.02,12
695024,-3.23,2.34,10.34,-0.15,0.22,-0.05,27.81,-8.69,-11.75,-0.54,-0.56,1.52,-2.69,2.91,8.82,0.98,0.15,0.16,0.01,12
695064,-3.23,2.42,9.42,0.26,-0.01,0.32,28.81,-7.00,-9.56,-0.49,-0.51,0.61,-2.73,2.93,8.80,0.98,0.15,0.16,0.01,12
695104,-3.19,2.88,9.57,0.37,-0.58,0.40,29.19,-6.94,-9.50,-0.66,-0.20,0.75,-2.52,3.08,8.82,0.98,0.16,0.15,0.02,12
695146,-1.35,3.15,8.46,-0.26,-0.40,0.10,27.94,-7.50,-11.81,0.91,0.02,-0.41,-2.26,3.12,8.88,0.98,0.16,0.14,0.02,12
695184,-1.04,2.96,8.73,-0.28,0.30,-0.12,26.44,-8.19,-11.94,1.22,-0.04,-0.19,-2.27,3.00,8.91,0.98,0.15,0.14,0.02,12
695224,-1.73,2.65,9.69,0.04,0.46,-0.14,27.44,-7.25,-12.25,0.69,-0.31,0.80,-2.42,2.96,8.89,0.98,0.15,0.14,0.02,12
695264,-2.08,2.84,9.27,-0.26,0.43,-0.30,27.94,-7.81,-11.44,0.51,-0.06,0.41,-2.59,2.91,8.86,0.98,0.15,0.15,0.02,12
695306,-2.69,2.80,9.15,0.05,-0.04,0.11,26.56,-7.31,-12.00,-0.00,0.02,0.27,-2.69,2.78,8.88,0.98,0.14,0.16,0.02,12
695346,-2.27,2.65,9.30,0.14,-0.32,0.05,28.56,-6.62,-11.44,0.31,-0.18,0.41,-2.58,2.84,8.89,0.98,0.15,0.15,0.02,12
695384,-2.19,2.65,9.46,0.30,-0.17,0.09,28.56,-6.94,-11.00,0.29,-0.26,0.56,-2.48,2.91,8.90,0.98,0.15,0.15,0.02,12
695424,-2.08,2.80,9.07,0.24,-0.07,0.09,28.88,-7.75,-10.94,0.34,-0.23,0.21,-2.42,3.03,8.87,0.98,0.16,0.14,0.02,12
695464,-1.93,3.11,8.73,0.16,-0.12,0.09,28.75,-8.38,-11.31,0.45,0.01,-0.14,-2.38,3.10,8.87,0.98,0.16,0.14,0.02,12
695507,-1.81,3.15,8.81,0.06,-0.07,0.04,28.75,-8.38,-11.31,0.51,0.00,-0.06,-2.32,3.15,8.87,0.98,0.16,0.14,0.02,12
695544,-1.81,3.07,9.07,0.06,-0.02,0.01,27.62,-7.25,-11.12,0.48,-0.09,0.20,-2.29,3.16,8.88,0.98,0.16,0.14,0.02,12
695584,-1.93,3.07,9.03,0.05,-0.01,0.01,27.88,-9.00,-11.00,0.35,-0.11,0.17,-2.27,3.18,8.87,0.98,0.16,0.14,0.02,12
695625,-2.00,3.11,9.04,0.05,-0.04,0.00,28.25,-8.94,-11.38,0.26,-0.09,0.17,-2.26,3.20,8.87,0.98,0.17,0.13,0.02,12
695668,-1.93,3.15,8.92,0.05,-0.03,-0.00,28.44,-7.19,-11.75,0.31,-0.05,0.04,-2.23,3.20,8.88,0.98,0.17,0.13,0.02,12
695705,-1.96,3.11,8.99,0.08,0.04,0.05,28.69,-8.06,-12.06,0.26,-0.12,0.13,-2.23,3.23,8.87,0.98,0.17,0.13,0.02,12
695745,-2.00,3.11,9.04,0.16,-0.02,0.10,26.56,-7.94,-11.62,0.22,-0.16,0.18,-2.22,3.27,8.86,0.98,0.17,0.13,0.02,12
695785,-2.38,3.19,9.23,0.29,-0.23,0.24,26.44,-8.56,-11.62,-0.27,-0.19,0.38,-2.11,3.38,8.84,0.98,0.18,0.13,0.03,12
695828,-1.39,3.57,8.19,0.04,-0.04,0.07,26.12,-8.19,-13.81,0.64,0.12,-0.64,-2.03,3.45,8.84,0.98,0.18,0.12,0.03,12
695865,-1.66,3.42,8.80,0.02,0.14,0.06,26.00,-8.25,-12.38,0.39,-0.02,-0.03,-2.05,3.44,8.84,0.98,0.18,0.12,0.03,12
695905,-1.81,3.30,9.15,-0.00,0.13,0.07,27.12,-9.12,-10.06,0.27,-0.15,0.33,-2.08,3.45,8.82,0.98,0.18,0.13,0.03,12
695945,-1.81,3.45,8.77,-0.02,0.09,0.05,26.62,-9.31,-12.62,0.29,0.00,-0.06,-2.10,3.45,8.83,0.97,0.18,0.13,0.03,12
695987,-1.96,3.34,9.04,-0.05,0.05,0.09,27.81,-8.69,-11.75,0.14,-0.11,0.21,-2.10,3.45,8.82,0.97,0.18,0.13,0.03,12
696025,-1.66,3.49,8.61,-0.25,0.20,-0.01,27.62,-8.69,-12.88,0.47,0.10,-0.22,-2.12,3.39,8.84,0.98,0.18,0.13,0.04,12
696065,-1.73,3.38,9.03,-0.20,0.11,-0.03,28.38,-9.88,-10.19,0.43,0.11,0.16,-2.16,3.27,8.88,0.98,0.17,0.13,0.04,12
696105,-1.77,2.92,9.53,0.14,-0.00,-0.07,26.81,-8.19,-12.69,0.40,-0.36,0.66,-2.17,3.27,8.87,0.98,0.17,0.13,0.04,12
696147,-1.89,3.23,8.92,0.13,-0.03,-0.09,27.31,-8.44,-12.19,0.29,-0.09,0.06,-2.17,3.31,8.86,0.98,0.17,0.13,0.03,12
696185,-1.73,3.34,8.69,0.11,-0.09,-0.12,26.38,-8.81,-11.94,0.42,-0.00,-0.16,-2.16,3.34,8.85,0.98,0.17,0.13,0.03,12
696225,-1.85,3.26,9.04,0.17,0.06,-0.10,26.69,-9.12,-9.69,0.31,-0.11,0.20,-2.16,3.38,8.84,0.98,0.18,0.13,0.03,12
696265,-2.00,3.30,9.04,0.12,0.04,-0.12,26.12,-9.38,-13.06,0.19,-0.11,0.21,-2.19,3.41,8.82,0.98,0.18,0.13,0.03,12
696307,-2.08,3.42,8.85,0.00,-0.07,-0.14,27.81,-8.75,-11.44,0.11,0.00,0.03,-2.19,3.41,8.81,0.98,0.18,0.13,0.02,12
696345,-2.08,3.34,8.91,0.03,-0.00,-0.09,28.75,-8.69,-10.94,0.10,-0.08,0.10,-2.18,3.42,8.82,0.98,0.18,0.13,0.02,12
696385,-2.00,3.38,8.95,-0.03,0.05,-0.10,27.94,-8.75,-10.69,0.19,-0.04,0.14,-2.19,3.41,8.82,0.98,0.18,0.13,0.02,12
696425,-2.08,3.34,8.95,0.05,0.04,-0.03,26.88,-8.50,-11.88,0.13,-0.07,0.14,-2.21,3.41,8.81,0.98,0.18,0.13,0.02,12
696467,-2.16,3.38,8.91,-0.02,0.03,-0.03,28.31,-9.25,-11.00,0.06,-0.04,0.11,-2.22,3.41,8.81,0.98,0.18,0.13,0.02,12
696505,-2.00,3.38,8.95,-0.00,0.02,-0.05,27.81,-9.31,-11.06,0.23,-0.02,0.14,-2.23,3.40,8.82,0.98,0.18,0.13,0.02,12
696545,-2.04,3.38,8.89,-0.03,0.07,-0.06,28.31,-9.56,-10.56,0.21,-0.01,0.07,-2.25,3.39,8.81,0.98,0.18,0.13,0.02,12
696585,-2.12,3.38,8.85,-0.08,0.06,-0.08,29.19,-8.62,-11.25,0.16,0.01,0.02,-2.27,3.37,8.82,0.98,0.18,0.13,0.02,12
696626,-2.08,3.34,8.89,-0.05,0.07,-0.06,25.94,-8.81,-12.38,0.23,0.01,0.05,-2.30,3.33,8.83,0.98,0.17,0.13,0.02,12
696666,-2.23,3.26,9.00,-0.02,0.04,-0.02,28.25,-9.25,-11.31,0.11,-0.05,0.17,-2.34,3.31,8.83,0.98,0.17,0.13,0.01,12
696706,-2.19,3.30,8.89,0.03,0.03,0.00,27.31,-7.31,-10.12,0.14,-0.00,0.06,-2.34,3.30,8.82,0.98,0.17,0.13,0.01,12
696746,-2.27,3.30,8.96,-0.01,0.05,0.02,28.19,-8.38,-12.50,0.08,-0.01,0.14,-2.35,3.31,8.82,0.98,0.17,0.13,0.02,12
696787,-2.19,3.34,8.84,-0.03,0.04,0.00,28.06,-7.25,-11.12,0.17,0.04,0.02,-2.36,3.30,8.83,0.98,0.17,0.13,0.02,12
696827,-2.19,3.34,8.81,-0.09,0.06,-0.05,29.06,-8.31,-12.00,-0.04,0.02,-0.11,-2.16,3.32,8.91,0.98,0.17,0.13,0.02,12
696867,-2.27,3.26,8.89,-0.09,0.04,-0.04,30.50,-8.31,-8.94,-0.08,-0.02,-0.03,-2.19,3.28,8.91,0.98,0.17,0.13,0.02,12
696907,-2.38,3.19,8.99,-0.03,-0.01,0.00,28.94,-8.38,-10.56,-0.19,-0.08,0.07,-2.20,3.27,8.92,0.98,0.17,0.13,0.02,12
696947,-2.31,3.23,8.89,-0.03,-0.03,0.01,26.81,-9.06,-11.88,-0.10,-0.02,-0.05,-2.21,3.25,8.93,0.98,0.17,0.13,0.02,12
696987,-2.31,3.15,9.04,0.01,-0.03,0.07,29.25,-7.38,-11.62,-0.11,-0.09,0.10,-2.20,3.24,8.94,0.98,0.17,0.13,0.02,12
697027,-2.27,3.19,8.95,0.04,0.00,0.08,28.62,-8.12,-9.94,-0.07,-0.06,0.03,-2.20,3.25,8.93,0.98,0.17,0.13,0.02,12
697067,-2.31,3.19,8.91,0.02,0.12,0.15,29.88,-7.69,-10.56,-0.08,-0.08,-0.01,-2.23,3.27,8.93,0.98,0.17,0.13,0.02,12
697109,-2.35,3.30,8.73,-0.03,0.06,0.16,29.38,-7.12,-11.31,-0.09,0.04,-0.19,-2.26,3.27,8.91,0.98,0.17,0.13,0.02,12
697147,-2.35,3.26,8.84,-0.07,0.06,0.18,29.50,-7.12,-10.56,-0.10,-0.00,-0.07,-2.25,3.27,8.91,0.98,0.17,0.13,0.03,12
697187,-2.08,3.30,8.92,-0.07,-0.02,0.07,28.12,-7.88,-10.31,0.16,0.05,-0.00,-2.23,3.25,8.92,0.98,0.17,0.13,0.03,12
697227,-1.96,3.15,9.11,0.05,0.02,0.01,28.88,-7.44,-11.69,0.26,-0.10,0.18,-2.23,3.25,8.93,0.98,0.17,0.13,0.03,12
697267,-2.19,3.23,8.92,0.02,0.03,0.00,29.69,-8.88,-10.81,0.06,-0.04,0.00,-2.25,3.27,8.91,0.98,0.17,0.13,0.03,12
697307,-2.31,3.26,8.89,-0.01,-0.03,0.02,28.81,-7.75,-11.69,-0.07,0.00,-0.04,-2.24,3.26,8.92,0.98,0.17,0.13,0.03,12
697347,-2.27,3.23,8.99,0.03,0.01,0.02,29.38,-8.69,-10.12,-0.04,-0.03,0.07,-2.23,3.26,8.92,0.98,0.17,0.13,0.03,12
697387,-2.27,3.23,8.91,-0.00,0.05,0.05,28.81,-8.69,-11.31,-0.02,-0.05,0.00,-2.25,3.27,8.91,0.98,0.17,0.13,0.03,12
697427,-2.35,3.26,8.84,-0.03,0.02,0.08,28.31,-8.06,-11.81,-0.10,-0.01,-0.06,-2.25,3.27,8.91,0.98,0.17,0.13,0.04,12
697467,-2.27,3.26,8.91,-0.04,0.02,0.09,29.69,-8.88,-10.81,-0.03,-0.00,0.01,-2.24,3.27,8.91,0.98,0.17,0.13,0.04,12
697507,-2.16,3.30,8.88,-0.04,-0.04,0.02,30.50,-8.00,-9.38,0.08,0.05,-0.03,-2.23,3.25,8.91,0.98,0.17,0.13,0.04,12
697547,-2.04,3.23,8.99,0.03,-0.06,-0.03,29.12,-8.62,-11.62,0.18,-0.02,0.07,-2.22,3.24,8.93,0.98,0.17,0.13,0.04,12
697587,-2.19,3.23,8.96,0.03,-0.10,-0.07,28.69,-8.31,-12.06,0.00,-0.02,0.03,-2.20,3.25,8.93,0.98,0.17,0.12,0.04,12
697626,-2.12,3.26,8.89,-0.02,-0.17,-0.16,28.62,-8.00,-12.81,0.05,0.03,-0.05,-2.16,3.23,8.94,0.98,0.17,0.12,0.03,12
697667,-2.04,3.19,9.03,0.01,-0.09,-0.15,29.50,-8.69,-9.44,0.09,-0.03,0.08,-2.13,3.22,8.95,0.98,0.17,0.12,0.03,12
697708,-2.04,3.15,9.04,0.06,0.03,-0.14,29.62,-8.88,-11.19,0.10,-0.07,0.08,-2.14,3.22,8.95,0.98,0.17,0.12,0.03,12
697750,-2.23,3.23,8.92,0.02,0.01,-0.10,28.56,-8.88,-12.44,-0.06,0.00,-0.03,-2.17,3.23,8.95,0.98,0.17,0.12,0.03,12
697787,-2.27,3.19,8.95,0.04,-0.02,-0.07,27.81,-8.44,-11.81,-0.09,-0.04,0.02,-2.18,3.23,8.94,0.98,0.17,0.12,0.02,12
697828,-2.19,3.23,8.92,0.05,-0.01,-0.08,28.00,-8.12,-10.75,-0.00,0.00,-0.02,-2.19,3.23,8.94,0.98,0.17,0.12,0.02,12
697868,-2.19,3.26,8.88,-0.01,0.01,-0.07,28.50,-8.12,-10.69,0.00,0.04,-0.05,-2.20,3.23,8.94,0.98,0.17,0.12,0.02,12
697910,-2.23,3.23,8.92,0.03,0.04,-0.03,29.62,-8.25,-11.62,-0.02,0.00,-0.01,-2.21,3.23,8.93,0.98,0.17,0.12,0.02,12
697948,-2.27,3.26,8.89,-0.01,0.04,-0.04,28.31,-8.69,-11.38,-0.04,0.04,-0.05,-2.23,3.23,8.93,0.98,0.17,0.12,0.02,12
697988,-2.31,3.23,8.89,-0.03,0.03,-0.02,28.56,-8.12,-10.25,-0.06,0.01,-0.04,-2.25,3.22,8.92,0.98,0.17,0.12,0.02,12
698028,-2.19,3.23,8.96,0.02,0.09,-0.04,28.38,-9.25,-10.62,0.08,0.02,0.04,-2.27,3.21,8.92,0.98,0.17,0.12,0.02,12
698070,-2.27,3.19,8.95,0.00,0.12,-0.04,30.56,-7.88,-11.88,-0.02,-0.03,0.03,-2.25,3.22,8.93,0.98,0.17,0.13,0.02,12
698108,-2.38,3.19,8.85,0.02,0.08,-0.09,28.69,-8.00,-12.44,-0.09,-0.04,-0.08,-2.30,3.23,8.92,0.98,0.17,0.13,0.02,12
705818,-6.02,-3.90,6.66,-0.01,0.04,-0.04,30.62,-8.56,-10.75,-0.12,0.15,-0.22,-5.90,-4.05,6.88,0.89,-0.13,0.37,-0.24,12
705858,-5.98,-3.94,6.86,0.04,0.03,-0.02,44.12,15.25,2.00,-0.08,0.11,-0.02,-5.91,-4.05,6.88,0.89,-0.13,0.37,-0.24,12
705898,-5.91,-4.02,6.82,0.01,0.01,-0.05,45.12,15.25,2.81,-0.00,0.03,-0.06,-5.91,-4.05,6.88,0.89,-0.13,0.37,-0.24,12
705938,-5.91,-4.02,6.73,-0.03,0.03,-0.05,42.44,15.06,2.88,-0.00,0.05,-0.13,-5.91,-4.06,6.87,0.89,-0.13,0.37,-0.24,12
705978,-5.98,-4.09,6.86,-0.05,0.03,-0.05,44.38,14.12,1.69,-0.08,-0.00,0.00,-5.91,-4.09,6.85,0.89,-0.13,0.37,-0.24,12
706018,-6.06,-4.13,6.96,-0.00,0.01,0.01,44.75,15.50,3.12,-0.16,-0.03,0.12,-5.91,-4.10,6.84,0.89,-0.13,0.37,-0.24,12
706058,-5.98,-4.09,6.93,0.04,0.02,0.00,43.56,14.06,1.94,-0.07,-0.00,0.09,-5.91,-4.09,6.84,0.89,-0.13,0.37,-0.24,12
706098,-5.91,-4.02,6.77,0.04,-0.00,-0.01,45.25,16.50,2.44,0.00,0.06,-0.07,-5.91,-4.08,6.84,0.89,-0.13,0.37,-0.24,12
706138,-5.87,-3.98,6.74,0.00,0.00,-0.01,44.44,14.44,1.38,0.04,0.10,-0.11,-5.91,-4.08,6.85,0.89,-0.13,0.37,-0.24,12
706178,-5.83,-4.02,6.82,-0.02,0.01,-0.03,44.56,14.69,2.44,0.14,0.00,0.02,-5.97,-4.02,6.79,0.89,-0.13,0.37,-0.24,12
706218,-5.91,-4.13,6.93,0.03,-0.00,-0.04,43.25,14.56,2.62,0.04,-0.11,0.14,-5.95,-4.02,6.79,0.89,-0.13,0.37,-0.24,12
706259,-5.95,-4.21,6.93,0.04,-0.00,-0.04,44.19,14.62,2.75,0.00,-0.18,0.12,-5.95,-4.03,6.81,0.89,-0.13,0.37,-0.25,12
706298,-6.06,-4.09,6.74,0.00,0.00,-0.02,45.62,15.31,2.88,-0.13,-0.04,-0.08,-5.93,-4.05,6.82,0.89,-0.13,0.37,-0.25,12
706339,-6.10,-4.13,6.89,0.05,-0.01,0.03,43.31,14.88,2.62,-0.16,-0.08,0.07,-5.95,-4.05,6.82,0.89,-0.13,0.37,-0.25,12
706379,-6.02,-4.13,6.86,0.05,-0.00,0.05,44.06,14.69,2.00,-0.06,-0.09,0.02,-5.96,-4.04,6.84,0.89,-0.13,0.37,-0.25,12
706418,-5.95,-4.25,7.04,0.84,0.12,0.38,45.56,14.75,2.94,0.06,-0.34,0.16,-6.01,-3.91,6.88,0.89,-0.12,0.37,-0.25,12
706459,-5.98,-3.71,7.16,1.05,0.05,0.26,44.06,14.69,1.62,0.11,-0.18,0.14,-6.09,-3.53,7.02,0.89,-0.10,0.37,-0.25,12
706499,-5.95,-3.29,6.54,0.45,-0.05,0.10,43.50,12.88,2.44,0.17,0.00,-0.58,-6.12,-3.29,7.12,0.89,-0.08,0.37,-0.25,12
706539,-5.95,-3.29,6.66,0.07,0.07,0.03,44.31,14.12,1.38,0.18,-0.09,-0.50,-6.12,-3.20,7.16,0.89,-0.08,0.37,-0.25,12
706579,-5.95,-3.09,6.85,-0.08,0.07,-0.03,44.50,12.38,1.06,0.20,0.12,-0.27,-6.15,-3.22,7.12,0.89,-0.08,0.37,-0.25,12
706620,-6.25,-3.21,7.39,0.39,0.02,0.06,43.88,13.50,1.69,-0.09,-0.06,0.25,-6.16,-3.15,7.14,0.89,-0.07,0.37,-0.25,12
706659,-6.25,-2.83,6.85,0.11,0.00,-0.01,45.38,13.88,2.62,-0.08,0.26,-0.32,-6.17,-3.09,7.17,0.89,-0.07,0.37,-0.25,12
706700,-6.25,-3.06,7.00,0.22,0.00,0.07,46.56,12.81,2.06,-0.08,-0.04,-0.19,-6.17,-3.02,7.20,0.89,-0.07,0.37,-0.25,12
706739,-6.25,-2.94,7.08,-0.03,-0.00,0.02,44.44,14.44,1.38,-0.08,0.05,-0.13,-6.17,-2.99,7.21,0.89,-0.06,0.37,-0.25,12
706780,-6.14,-2.94,7.16,-0.09,-0.05,-0.04,44.06,12.38,1.44,0.03,0.07,-0.05,-6.16,-3.02,7.20,0.89,-0.07,0.36,-0.25,12
706820,-6.14,-3.02,7.20,-0.11,-0.03,-0.05,45.75,13.38,2.25,0.02,0.04,0.00,-6.16,-3.06,7.20,0.89,-0.07,0.36,-0.25,12
706860,-6.14,-3.06,7.24,-0.11,-0.02,-0.04,44.75,13.25,2.19,0.00,0.05,0.05,-6.14,-3.11,7.19,0.89,-0.07,0.37,-0.25,12
706900,-6.14,-3.17,7.23,-0.16,-0.02,-0.05,45.44,13.06,0.81,-0.00,-0.01,0.06,-6.13,-3.16,7.17,0.89,-0.07,0.37,-0.25,12
706942,-6.10,-3.32,7.32,-0.01,-0.02,-0.01,46.00,12.50,1.69,0.02,-0.11,0.15,-6.12,-3.21,7.16,0.89,-0.08,0.37,-0.25,12
706980,-6.10,-3.25,7.24,0.00,0.01,0.00,45.00,12.75,1.12,0.02,-0.05,0.07,-6.12,-3.20,7.16,0.89,-0.08,0.37,-0.25,12
707020,-6.10,-3.17,7.08,-0.03,-0.02,-0.01,46.69,13.44,2.38,0.02,0.04,-0.07,-6.12,-3.21,7.16,0.89,-0.08,0.37,-0.25,12
707060,-6.06,-3.17,7.08,-0.09,-0.02,-0.04,45.44,13.81,2.94,0.05,0.05,-0.07,-6.12,-3.23,7.16,0.89,-0.08,0.37,-0.25,12
707102,-6.06,-3.13,7.00,-0.20,-0.03,-0.09,43.94,12.88,2.50,0.04,0.16,-0.14,-6.10,-3.29,7.14,0.89,-0.08,0.37,-0.25,12
707140,-6.06,-3.32,7.08,-0.13,-0.03,-0.04,45.38,13.88,2.62,0.02,0.03,-0.05,-6.08,-3.35,7.13,0.89,-0.08,0.37,-0.25,12
707180,-6.02,-3.40,7.20,-0.14,0.02,-0.03,44.75,13.56,1.81,0.05,-0.00,0.09,-6.08,-3.40,7.11,0.89,-0.09,0.37,-0.25,12
707220,-6.02,-3.40,7.20,-0.04,-0.00,-0.04,44.75,13.56,1.81,0.05,0.03,0.09,-6.08,-3.43,7.10,0.89,-0.09,0.37,-0.25,12
707263,-6.10,-3.48,7.08,-0.08,-0.03,-0.05,44.44,14.12,1.75,-0.04,-0.02,-0.01,-6.06,-3.46,7.09,0.89,-0.09,0.37,-0.25,12
707300,-6.02,-3.48,7.04,-0.12,-0.01,-0.04,44.88,13.81,2.12,0.03,0.01,-0.04,-6.05,-3.49,7.09,0.89,-0.09,0.37,-0.25,12
707340,-5.95,-3.55,7.08,-0.16,-0.00,-0.06,44.31,14.12,1.38,0.10,-0.01,0.01,-6.05,-3.55,7.07,0.89,-0.10,0.37,-0.25,12
707380,-5.95,-3.55,7.04,-0.13,-0.03,-0.08,46.25,13.94,2.31,0.09,0.05,-0.01,-6.03,-3.60,7.05,0.89,-0.10,0.37,-0.25,12
707423,-6.02,-3.63,7.16,-0.03,0.00,-0.04,46.00,14.50,3.00,0.02,-0.26,0.06,-6.04,-3.38,7.09,0.89,-0.10,0.37,-0.25,12
707460,-6.06,-3.63,7.08,-0.02,0.00,-0.03,45.25,14.19,1.50,-0.03,-0.23,-0.01,-6.03,-3.41,7.09,0.89,-0.10,0.37,-0.25,12
707500,-6.06,-3.63,7.00,-0.04,-0.01,0.01,44.38,13.50,2.50,-0.03,-0.19,-0.08,-6.03,-3.45,7.09,0.89,-0.10,0.37,-0.25,12
707541,-5.98,-3.71,7.08,-0.03,0.01,0.00,46.19,15.06,3.75,0.05,-0.23,0.00,-6.03,-3.48,7.08,0.89,-0.10,0.37,-0.25,12
707581,-5.87,-3.67,7.08,-0.05,-0.00,-0.03,45.00,14.75,2.50,0.15,-0.14,0.01,-6.02,-3.53,7.07,0.89,-0.10,0.37,-0.25,12
707621,-5.87,-3.75,7.08,-0.05,0.01,-0.04,45.06,14.44,2.88,0.13,-0.17,0.02,-6.00,-3.58,7.06,0.89,-0.10,0.37,-0.25,12
707661,-6.02,-3.75,7.12,0.04,0.02,-0.01,44.50,13.75,2.81,-0.04,-0.14,0.07,-5.98,-3.61,7.05,0.89,-0.10,0.37,-0.25,12
707701,-6.06,-3.67,7.04,0.03,-0.02,-0.01,46.38,14.25,2.69,-0.08,-0.06,-0.03,-5.98,-3.61,7.07,0.89,-0.10,0.37,-0.25,12
707741,-6.10,-3.55,6.93,0.03,-0.02,0.02,43.69,14.00,2.75,-0.13,0.04,-0.15,-5.97,-3.59,7.08,0.89,-0.10,0.37,-0.25,12
707781,-5.95,-3.63,6.85,-0.04,-0.01,0.01,44.06,13.44,2.81,0.02,-0.04,-0.23,-5.97,-3.59,7.08,0.89,-0.10,0.37,-0.25,12
707821,-5.95,-3.67,6.96,-0.03,-0.02,0.01,45.44,14.44,2.56,0.02,-0.06,-0.11,-5.97,-3.61,7.08,0.89,-0.10,0.37,-0.25,12
707861,-5.91,-3.71,7.08,-0.01,-0.01,-0.00,43.56,14.31,1.94,0.06,-0.09,0.01,-5.97,-3.62,7.07,0.89,-0.10,0.37,-0.25,12
707901,-5.87,-3.75,7.20,0.05,-0.02,-0.02,44.88,13.50,2.56,0.08,-0.13,0.12,-5.95,-3.62,7.08,0.89,-0.10,0.37,-0.25,12
707941,-6.02,-3.40,6.70,0.03,-0.07,-0.05,43.62,14.31,2.38,-0.09,0.21,-0.39,-5.94,-3.61,7.09,0.89,-0.10,0.37,-0.25,12
707981,-6.06,-3.25,6.54,-0.07,-0.16,-0.05,43.75,14.31,3.06,-0.16,0.38,-0.57,-5.90,-3.63,7.12,0.89,-0.10,0.36,-0.25,12
708021,-6.10,-3.40,6.62,-0.14,-0.10,0.06,43.88,13.50,1.69,-0.14,0.25,-0.36,-5.96,-3.66,6.98,0.89,-0.10,0.36,-0.25,12
708061,-5.98,-3.67,6.93,-0.15,-0.09,0.04,45.19,13.31,1.88,-0.04,0.02,-0.05,-5.95,-3.70,6.98,0.89,-0.11,0.36,-0.25,12
708101,-5.72,-3.98,7.35,-0.05,-0.14,0.03,44.00,13.75,2.06,0.19,-0.27,0.36,-5.91,-3.71,6.99,0.89,-0.11,0.36,-0.25,12
708141,-5.56,-4.02,7.38,0.03,-0.11,-0.03,43.50,13.19,2.38,0.30,-0.29,0.37,-5.87,-3.73,7.02,0.89,-0.11,0.36,-0.25,12
708181,-5.72,-3.86,7.28,0.04,-0.05,0.01,43.50,13.44,2.00,0.13,-0.15,0.23,-5.85,-3.71,7.05,0.89,-0.11,0.36,-0.25,12
708221,-5.75,-3.79,7.04,-0.08,-0.07,-0.01,44.00,13.75,2.06,0.07,-0.06,-0.00,-5.83,-3.73,7.05,0.89,-0.11,0.36,-0.25,12
708261,-5.72,-3.82,7.12,-0.11,-0.04,0.00,43.81,13.81,0.94,0.10,-0.07,0.07,-5.82,-3.75,7.05,0.89,-0.11,0.36,-0.25,12
708301,-5.79,-3.79,7.12,-0.01,-0.15,0.01,44.44,13.50,2.12,-0.00,-0.01,0.06,-5.79,-3.77,7.06,0.89,-0.11,0.35,-0.25,12
708341,-5.87,-3.82,7.34,0.24,-0.33,-0.02,44.44,12.94,2.50,-0.14,-0.10,0.21,-5.73,-3.73,7.13,0.90,-0.11,0.35,-0.25,12
708381,-5.87,-3.94,7.28,0.08,-0.44,-0.10,43.69,12.00,1.38,-0.27,-0.24,0.02,-5.60,-3.70,7.25,0.90,-0.11,0.34,-0.25,12
708421,-5.79,-4.09,8.08,0.43,-0.31,0.15,41.44,12.44,1.12,-0.31,-0.47,0.70,-5.48,-3.62,7.38,0.90,-0.11,0.33,-0.25,12
708461,-5.41,-3.86,7.89,0.23,-0.13,0.21,41.31,12.81,0.00,0.04,-0.39,0.42,-5.45,-3.47,7.47,0.91,-0.10,0.33,-0.25,12
708501,-5.18,-3.75,7.73,0.19,-0.05,0.20,42.12,11.94,0.44,0.27,-0.39,0.21,-5.45,-3.36,7.52,0.91,-0.10,0.33,-0.24,12
708541,-4.95,-3.67,7.77,0.13,-0.03,0.09,41.75,13.12,0.00,0.52,-0.38,0.21,-5.47,-3.29,7.55,0.91,-0.10,0.33,-0.24,12
708582,-4.91,-3.32,7.50,0.07,-0.02,-0.02,42.75,13.19,0.50,0.55,-0.07,-0.07,-5.46,-3.25,7.58,0.91,-0.09,0.33,-0.24,12
708622,-5.07,-3.25,7.46,0.02,0.01,-0.06,42.00,11.94,-0.31,0.38,0.00,-0.11,-5.45,-3.25,7.58,0.91,-0.09,0.33,-0.24,12
708662,-5.26,-3.21,7.42,-0.04,0.04,-0.08,41.88,13.12,0.69,0.19,0.06,-0.15,-5.45,-3.27,7.58,0.91,-0.09,0.33,-0.25,12
708702,-5.49,-3.25,7.54,-0.07,0.02,-0.02,42.56,12.00,0.19,-0.04,0.05,-0.02,-5.45,-3.30,7.56,0.91,-0.09,0.33,-0.25,12
708742,-5.53,-3.36,7.58,-0.12,0.02,0.02,42.75,12.56,0.88,-0.07,-0.03,0.03,-5.45,-3.34,7.55,0.91,-0.10,0.33,-0.25,12
708782,-5.37,-3.44,7.73,-0.06,0.05,0.07,42.38,13.38,0.75,0.10,-0.08,0.21,-5.47,-3.36,7.52,0.91,-0.10,0.33,-0.24,12
708822,-5.34,-3.48,7.73,-0.01,0.06,0.04,42.19,12.88,0.06,0.16,-0.13,0.22,-5.50,-3.35,7.51,0.91,-0.10,0.33,-0.24,12
708862,-5.30,-3.44,7.58,-0.03,0.02,-0.02,43.06,12.00,0.56,0.21,-0.08,0.08,-5.51,-3.36,7.50,0.91,-0.10,0.33,-0.24,12
708902,-5.45,-3.44,7.66,-0.02,0.01,-0.00,42.19,12.25,0.44,0.06,-0.07,0.16,-5.51,-3.38,7.49,0.91,-0.10,0.33,-0.24,12
708942,-5.49,-3.48,7.70,-0.03,0.03,0.02,41.25,12.19,0.00,0.03,-0.10,0.21,-5.52,-3.38,7.48,0.91,-0.10,0.33,-0.24,12
708982,-5.45,-3.44,7.70,-0.07,0.11,0.08,41.44,12.75,0.69,0.09,-0.06,0.23,-5.54,-3.38,7.46,0.91,-0.10,0.33,-0.24,12
709022,-5.41,-3.67,7.73,-0.07,0.09,0.02,41.88,13.38,0.69,0.17,-0.27,0.29,-5.58,-3.40,7.44,0.91,-0.10,0.34,-0.24,12
709063,-5.34,-3.71,7.54,-0.09,0.06,-0.06,42.69,11.69,1.31,0.11,-0.25,-0.08,-5.45,-3.46,7.62,0.90,-0.10,0.34,-0.24,12
709103,-5.49,-3.71,7.62,-0.01,-0.02,-0.12,42.44,12.81,1.88,-0.05,-0.20,0.02,-5.44,-3.51,7.60,0.90,-0.10,0.34,-0.24,12
709143,-5.64,-3.67,7.58,0.04,-0.04,-0.10,42.25,12.56,0.81,-0.22,-0.12,-0.02,-5.42,-3.55,7.60,0.90,-0.10,0.34,-0.24,12
709183,-5.68,-3.55,7.62,0.12,-0.00,0.00,42.25,12.88,0.44,-0.26,0.01,0.00,-5.42,-3.56,7.62,0.90,-0.10,0.33,-0.25,12
709222,-5.41,-3.25,7.24,0.10,0.02,-0.03,42.88,13.19,1.25,0.03,0.27,-0.40,-5.44,-3.52,7.63,0.90,-0.10,0.33,-0.25,12
709263,-5.41,-3.17,7.08,0.02,-0.00,-0.04,44.31,13.50,1.38,0.02,0.34,-0.56,-5.43,-3.52,7.64,0.90,-0.10,0.33,-0.25,12
709302,-5.53,-3.25,7.28,0.03,-0.05,-0.03,42.62,14.88,1.44,-0.11,0.27,-0.38,-5.42,-3.52,7.65,0.90,-0.10,0.33,-0.25,12
709343,-5.45,-3.40,7.38,0.00,-0.09,-0.09,43.31,13.44,0.88,-0.05,0.12,-0.27,-5.40,-3.52,7.66,0.90,-0.10,0.33,-0.25,12
709383,-5.22,-3.36,7.58,-0.09,-0.05,-0.07,42.00,14.25,0.69,0.14,0.19,-0.09,-5.36,-3.55,7.67,0.90,-0.10,0.33,-0.25,12
709423,-5.26,-3.55,7.81,-0.03,0.04,-0.01,42.00,14.56,0.69,0.09,0.03,0.15,-5.35,-3.59,7.66,0.90,-0.10,0.33,-0.25,12
709463,-5.18,-3.63,7.70,-0.04,0.03,-0.07,42.94,13.38,1.56,0.19,-0.03,0.05,-5.37,-3.60,7.64,0.90,-0.10,0.33,-0.25,12
709503,-5.30,-3.67,7.42,-0.04,-0.01,-0.07,42.44,13.12,1.50,0.05,-0.04,-0.21,-5.35,-3.63,7.63,0.90,-0.11,0.33,-0.25,12
709542,-5.41,-3.55,7.66,-0.01,0.00,-0.02,41.75,15.06,1.00,-0.06,0.09,0.03,-5.35,-3.65,7.62,0.90,-0.11,0.33,-0.25,12
709583,-5.30,-3.63,7.73,0.04,-0.04,-0.06,42.00,12.75,1.81,0.04,0.02,0.10,-5.34,-3.66,7.63,0.90,-0.11,0.33,-0.25,12
709624,-5.30,-3.63,7.50,0.01,0.00,-0.08,42.44,13.69,1.19,0.02,0.02,-0.14,-5.32,-3.66,7.64,0.90,-0.11,0.33,-0.26,12
709664,-5.45,-3.59,7.20,-0.10,0.01,-0.07,42.75,13.75,0.12,-0.14,0.10,-0.44,-5.31,-3.70,7.63,0.90,-0.11,0.33,-0.26,12
709703,-5.60,-3.75,7.54,-0.08,0.03,-0.03,42.06,13.94,1.44,-0.30,-0.01,-0.08,-5.30,-3.73,7.62,0.90,-0.11,0.33,-0.26,12
709744,-5.60,-3.75,7.58,-0.06,0.02,0.02,42.81,13.19,0.81,-0.28,-0.00,-0.02,-5.32,-3.74,7.59,0.90,-0.11,0.33,-0.26,12
709784,-5.45,-3.79,7.62,0.02,-0.01,0.01,41.69,14.50,1.00,-0.12,-0.04,0.02,-5.33,-3.74,7.59,0.90,-0.11,0.33,-0.26,12
709824,-5.34,-3.71,7.58,-0.00,0.01,0.02,42.19,13.94,2.19,-0.01,0.03,-0.02,-5.33,-3.73,7.59,0.90,-0.11,0.33,-0.26,12
709864,-5.07,-3.75,7.50,-0.03,0.03,-0.02,41.50,13.94,0.31,0.27,-0.00,-0.08,-5.34,-3.74,7.59,0.90,-0.11,0.33,-0.26,12
709904,-5.11,-3.71,7.50,-0.06,0.03,-0.07,43.94,14.06,1.69,0.23,0.06,-0.07,-5.34,-3.77,7.57,0.90,-0.11,0.33,-0.26,12
709944,-5.30,-3.75,7.46,-0.04,-0.00,-0.09,43.06,14.62,1.19,0.04,0.05,-0.09,-5.34,-3.80,7.55,0.90,-0.11,0.33,-0.26,12
709984,-5.41,-3.71,7.46,-0.05,0.00,-0.06,43.06,14.62,1.19,-0.09,0.12,-0.08,-5.32,-3.83,7.55,0.90,-0.12,0.33,-0.26,12
710024,-5.41,-3.55,7.20,-0.04,-0.02,-0.07,43.12,14.94,1.50,-0.05,0.18,-0.29,-5.36,-3.73,7.48,0.90,-0.12,0.33,-0.26,12
710064,-5.45,-3.55,7.04,-0.15,-0.05,-0.08,41.06,13.94,0.25,-0.11,0.21,-0.41,-5.34,-3.77,7.45,0.90,-0.12,0.33,-0.26,12
710104,-5.49,-3.75,7.16,-0.23,-0.03,-0.03,42.50,14.31,1.12,-0.16,0.07,-0.23,-5.33,-3.82,7.39,0.90,-0.12,0.33,-0.26,12
710144,-5.41,-4.02,7.43,-0.25,-0.01,-0.01,42.50,14.31,1.12,-0.09,-0.12,0.07,-5.32,-3.89,7.36,0.90,-0.13,0.33,-0.26,12
710184,-5.11,-4.40,7.85,-0.12,-0.02,-0.02,42.38,13.69,0.75,0.21,-0.45,0.53,-5.32,-3.95,7.32,0.90,-0.13,0.33,-0.26,12
710224,-5.03,-4.36,7.73,0.00,0.00,-0.04,39.88,14.69,0.75,0.29,-0.39,0.42,-5.31,-3.97,7.31,0.90,-0.13,0.33,-0.26,12
710264,-5.03,-4.21,7.50,0.02,0.01,-0.06,42.44,14.62,0.38,0.28,-0.23,0.19,-5.30,-3.98,7.31,0.90,-0.13,0.33,-0.26,12
710304,-5.11,-4.02,7.35,0.01,0.03,-0.07,41.25,15.38,0.50,0.19,-0.03,0.04,-5.30,-3.98,7.31,0.90,-0.13,0.33,-0.26,12
710346,-5.30,-3.71,6.93,-0.06,0.01,-0.07,42.06,14.25,1.06,-0.01,0.29,-0.38,-5.29,-4.00,7.30,0.90,-0.13,0.33,-0.26,12
710384,-5.41,-3.79,6.93,-0.18,0.02,-0.05,42.94,14.62,0.75,-0.13,0.27,-0.34,-5.28,-4.05,7.27,0.90,-0.14,0.33,-0.26,12
710424,-5.53,-3.98,7.08,-0.19,0.03,0.04,41.38,15.06,1.31,-0.24,0.13,-0.16,-5.29,-4.11,7.24,0.89,-0.14,0.34,-0.26,12
710464,-5.49,-4.28,7.23,-0.18,0.03,0.03,42.00,14.88,0.31,-0.18,-0.12,0.02,-5.30,-4.16,7.21,0.89,-0.14,0.34,-0.26,12
710506,-5.56,-4.44,7.42,-0.02,0.01,0.13,42.06,14.56,1.06,-0.23,-0.26,0.25,-5.33,-4.18,7.18,0.89,-0.14,0.34,-0.26,12
710544,-5.37,-4.59,7.46,-0.06,-0.00,0.07,43.69,13.81,0.25,-0.03,-0.43,0.30,-5.34,-4.16,7.16,0.89,-0.14,0.34,-0.25,12
710584,-5.34,-4.55,7.43,0.00,-0.05,0.04,41.56,13.94,0.62,0.01,-0.39,0.26,-5.34,-4.16,7.16,0.89,-0.14,0.34,-0.25,12
710625,-5.22,-4.48,7.31,-0.05,-0.05,0.01,41.56,14.25,0.25,0.11,-0.31,0.13,-5.33,-4.16,7.18,0.90,-0.14,0.34,-0.25,12
710667,-4.95,-4.51,7.38,-0.00,-0.04,-0.06,42.06,13.62,1.44,0.36,-0.34,0.21,-5.31,-4.17,7.18,0.90,-0.14,0.34,-0.25,12
710705,-5.03,-4.32,7.16,0.03,-0.04,-0.18,44.06,14.69,1.62,0.26,-0.12,-0.04,-5.29,-4.20,7.20,0.90,-0.14,0.34,-0.25,12
710745,-5.34,-4.02,6.82,-0.07,-0.05,-0.21,41.94,14.88,-0.06,-0.09,0.23,-0.38,-5.24,-4.25,7.20,0.89,-0.15,0.34,-0.26,12
710785,-5.49,-3.82,6.51,-0.25,-0.09,-0.17,42.50,14.62,0.69,-0.30,0.52,-0.68,-5.19,-4.34,7.19,0.89,-0.15,0.34,-0.26,12
710828,-5.45,-4.09,6.73,-0.41,-0.15,-0.05,41.75,15.06,1.00,-0.32,0.37,-0.41,-5.13,-4.46,7.15,0.89,-0.16,0.33,-0.26,12
710865,-5.18,-4.59,7.12,-0.46,-0.12,0.00,42.06,15.12,0.62,-0.09,-0.00,0.03,-5.09,-4.59,7.09,0.89,-0.17,0.33,-0.26,12
710905,-4.99,-5.12,7.46,-0.43,-0.11,0.02,41.31,15.69,0.50,0.07,-0.41,0.43,-5.06,-4.71,7.03,0.89,-0.17,0.33,-0.25,12
710945,-4.84,-5.43,7.73,-0.30,-0.07,0.09,40.69,15.06,0.12,0.21,-0.63,0.75,-5.05,-4.80,6.98,0.89,-0.18,0.34,-0.25,12
710988,-4.38,-5.55,7.89,-0.04,-0.04,0.04,40.81,15.31,0.44,0.67,-0.71,0.93,-5.05,-4.84,6.95,0.89,-0.18,0.34,-0.25,12
711025,-4.38,-5.20,7.46,0.12,-0.03,-0.06,41.38,14.75,1.62,0.66,-0.37,0.49,-5.03,-4.84,6.98,0.89,-0.18,0.33,-0.25,12
711065,-4.57,-4.82,7.08,0.12,0.02,-0.08,40.44,14.94,1.50,0.45,-0.01,0.08,-5.02,-4.81,7.00,0.89,-0.18,0.33,-0.25,12
711105,-4.88,-4.70,6.86,0.02,-0.00,-0.06,40.00,15.88,0.75,0.12,0.11,-0.16,-5.00,-4.81,7.01,0.89,-0.18,0.33,-0.25,12
711149,-4.88,-4.89,7.04,-0.04,-0.10,-0.09,40.44,14.94,1.19,0.11,-0.06,0.03,-4.98,-4.84,7.02,0.89,-0.18,0.33,-0.25,12
711185,-4.72,-5.32,7.43,0.01,-0.16,-0.19,41.31,16.00,0.50,0.18,-0.44,0.39,-4.91,-4.88,7.04,0.89,-0.18,0.33,-0.25,12
711225,-4.76,-5.47,7.70,0.26,-0.08,-0.08,39.50,15.50,0.69,0.08,-0.59,0.61,-4.84,-4.88,7.09,0.89,-0.18,0.33,-0.26,12
711265,-4.68,-5.47,7.93,0.42,0.07,0.06,39.62,15.19,1.81,0.14,-0.70,0.75,-4.83,-4.77,7.17,0.89,-0.18,0.32,-0.26,12
711305,-4.45,-5.12,7.62,0.30,0.12,-0.03,40.38,15.00,0.81,0.41,-0.45,0.40,-4.87,-4.67,7.22,0.89,-0.17,0.32,-0.26,12
711345,-4.61,-4.48,6.86,0.13,0.10,-0.08,40.88,15.62,0.88,0.28,0.15,-0.39,-4.88,-4.62,7.24,0.89,-0.17,0.33,-0.26,12
711385,-4.84,-4.40,6.93,0.08,0.12,-0.05,40.19,15.94,-0.75,0.06,0.21,-0.31,-4.90,-4.61,7.24,0.89,-0.16,0.33,-0.27,12
711425,-4.84,-4.51,7.04,-0.00,0.17,-0.04,39.06,16.12,0.19,0.09,0.10,-0.18,-4.93,-4.61,7.22,0.89,-0.16,0.33,-0.27,12
711465,-4.80,-4.59,7.16,0.12,0.15,-0.03,37.69,15.69,0.44,0.16,0.01,-0.05,-4.96,-4.60,7.20,0.89,-0.16,0.33,-0.27,12
711505,-4.64,-4.70,7.58,0.30,0.16,-0.09,39.00,15.19,0.25,0.36,-0.16,0.36,-5.00,-4.55,7.22,0.89,-0.16,0.33,-0.27,12
711545,-4.76,-4.55,7.20,0.22,0.13,-0.20,39.81,15.88,-0.38,0.26,-0.04,-0.03,-5.02,-4.51,7.23,0.89,-0.15,0.33,-0.28,12
711585,-4.88,-4.67,7.12,0.16,0.06,-0.26,38.94,15.19,-0.12,0.12,-0.17,-0.13,-5.00,-4.50,7.25,0.89,-0.15,0.33,-0.28,12
711626,-5.07,-4.70,7.08,0.01,0.05,-0.24,40.81,16.25,-0.25,-0.11,-0.16,-0.17,-4.96,-4.54,7.25,0.89,-0.15,0.33,-0.29,12
711666,-5.26,-4.78,7.46,0.08,0.10,-0.12,40.06,16.69,0.69,-0.30,-0.22,0.22,-4.95,-4.56,7.24,0.88,-0.15,0.33,-0.29,12
711706,-5.22,-4.63,7.42,0.12,0.09,-0.06,39.81,15.56,0.00,-0.26,-0.09,0.18,-4.96,-4.54,7.25,0.88,-0.15,0.33,-0.29,12
711746,-5.26,-4.63,7.24,0.18,0.24,0.10,41.50,16.25,1.25,-0.26,-0.14,-0.02,-5.00,-4.49,7.26,0.88,-0.14,0.34,-0.29,12
711787,-5.68,-4.78,7.46,0.71,0.71,0.61,41.50,16.56,1.25,-0.48,-0.48,0.24,-5.20,-4.30,7.23,0.88,-0.13,0.34,-0.29,12
711826,-6.25,-4.02,7.00,0.46,0.61,0.83,42.00,15.38,2.12,-0.72,-0.05,-0.18,-5.53,-3.96,7.19,0.88,-0.11,0.35,-0.29,12
711866,-5.75,-3.59,6.81,0.34,0.26,0.66,45.44,16.12,3.94,0.01,0.09,-0.34,-5.77,-3.69,7.15,0.89,-0.10,0.36,-0.28,12
711906,-5.45,-3.29,6.58,0.15,0.10,0.34,45.81,15.56,4.00,0.44,0.21,-0.57,-5.89,-3.50,7.16,0.89,-0.09,0.36,-0.27,12
711947,-5.26,-2.90,6.31,-0.01,0.01,0.10,46.06,15.06,2.94,0.68,0.53,-0.84,-5.94,-3.43,7.16,0.89,-0.08,0.36,-0.27,12
711987,-5.64,-3.02,6.73,0.04,-0.12,0.02,43.94,14.56,3.81,0.28,0.39,-0.43,-5.92,-3.41,7.17,0.89,-0.08,0.36,-0.26,12
712027,-5.83,-3.06,6.78,-0.19,-0.13,0.01,44.50,14.31,4.62,0.06,0.37,-0.41,-5.89,-3.43,7.18,0.89,-0.09,0.36,-0.26,12
712067,-5.83,-3.52,7.08,0.30,0.01,0.21,45.94,15.00,5.12,0.04,-0.10,-0.11,-5.88,-3.41,7.20,0.89,-0.09,0.36,-0.26,12
712107,-5.95,-3.90,7.73,0.55,0.21,0.29,45.19,14.06,4.00,-0.01,-0.69,0.49,-5.94,-3.21,7.24,0.89,-0.08,0.36,-0.26,12
712147,-6.21,-3.67,7.96,0.79,0.27,0.34,47.06,13.62,4.62,-0.18,-0.73,0.69,-6.04,-2.95,7.27,0.89,-0.06,0.36,-0.26,12
712187,-6.33,-3.06,7.70,0.68,0.28,0.35,46.12,12.62,5.25,-0.17,-0.43,0.41,-6.16,-2.63,7.29,0.89,-0.04,0.36,-0.26,12
712227,-6.33,-2.41,6.96,0.21,0.21,0.35,48.62,12.00,4.50,-0.06,0.02,-0.32,-6.27,-2.42,7.28,0.89,-0.03,0.36,-0.26,12
712267,-6.21,-2.45,6.77,-0.12,0.13,0.25,48.38,13.44,4.75,0.13,-0.12,-0.47,-6.34,-2.33,7.24,0.90,-0.03,0.37,-0.25,12
712307,-6.14,-2.37,6.78,-0.34,0.05,0.15,49.81,12.94,5.75,0.25,-0.01,-0.42,-6.39,-2.36,7.20,0.90,-0.03,0.37,-0.25,12
712347,-6.21,-2.64,7.77,0.38,-0.02,0.23,49.94,13.50,6.06,0.20,-0.32,0.59,-6.41,-2.31,7.18,0.90,-0.03,0.37,-0.24,12
712387,-6.29,-2.60,8.12,0.45,-0.04,0.18,49.38,12.56,6.00,0.13,-0.49,0.88,-6.42,-2.11,7.23,0.90,-0.02,0.37,-0.24,12
712427,-6.18,-2.37,7.70,0.30,-0.07,0.02,48.12,12.00,4.50,0.24,-0.39,0.41,-6.41,-1.98,7.28,0.90,-0.01,0.36,-0.24,12
712467,-6.25,-2.18,7.31,0.23,-0.01,0.04,48.81,12.56,5.25,0.16,-0.29,0.01,-6.41,-1.88,7.30,0.90,-0.01,0.36,-0.25,12
712507,-6.21,-1.79,7.04,-0.05,0.01,-0.03,48.69,12.00,4.88,0.21,0.07,-0.28,-6.42,-1.86,7.32,0.90,-0.00,0.36,-0.25,12
712547,-6.29,-1.64,7.00,-0.07,-0.02,-0.04,48.12,12.00,4.50,0.11,0.27,-0.31,-6.41,-1.91,7.31,0.90,-0.01,0.36,-0.25,12
712587,-6.41,-1.68,7.20,-0.12,-0.03,-0.03,47.88,11.19,3.75,-0.01,0.26,-0.12,-6.40,-1.94,7.31,0.90,-0.01,0.36,-0.25,12
712627,-6.21,-1.98,7.24,-0.16,-0.02,-0.05,47.19,11.94,4.38,0.17,0.02,-0.07,-6.38,-2.00,7.30,0.90,-0.01,0.36,-0.25,12
712667,-6.37,-2.41,7.81,0.55,0.04,0.15,49.69,12.06,5.38,0.02,-0.44,0.50,-6.38,-1.97,7.31,0.90,-0.01,0.36,-0.25,12
712708,-6.45,-2.45,8.35,1.08,0.06,-0.01,45.81,10.94,4.56,-0.05,-0.77,0.98,-6.40,-1.67,7.37,0.90,0.01,0.36,-0.25,12
712748,-6.37,-1.83,7.89,1.19,-0.26,-0.03,50.00,11.25,5.81,0.02,-0.50,0.43,-6.39,-1.34,7.45,0.90,0.03,0.35,-0.26,12
712788,-6.06,-1.07,7.24,0.85,-0.30,0.03,47.06,11.94,3.62,0.23,-0.07,-0.34,-6.30,-1.00,7.58,0.90,0.05,0.34,-0.27,12
712828,-5.75,-0.61,6.96,0.33,-0.16,-0.11,49.94,10.19,3.38,0.47,0.22,-0.69,-6.23,-0.83,7.66,0.90,0.06,0.33,-0.27,12
712868,-5.79,-0.45,6.66,-0.27,-0.31,-0.39,48.56,9.19,3.56,0.36,0.45,-1.06,-6.16,-0.90,7.72,0.90,0.05,0.33,-0.28,12
712908,-6.14,-0.80,7.04,-0.75,-0.61,-0.49,47.44,9.12,2.38,-0.15,0.37,-0.76,-5.98,-1.16,7.80,0.90,0.04,0.32,-0.28,12
712948,-5.79,-1.75,8.23,-1.04,-0.54,-0.53,47.62,10.62,2.31,-0.03,-0.14,0.34,-5.77,-1.61,7.89,0.90,0.01,0.32,-0.29,12
712988,-5.41,-2.48,9.31,0.22,-0.29,-0.35,45.88,11.06,2.06,0.19,-0.63,1.35,-5.60,-1.85,7.95,0.90,-0.00,0.31,-0.29,12
713028,-5.41,-2.10,9.61,0.61,-0.18,-0.26,46.38,11.69,2.12,0.10,-0.37,1.57,-5.51,-1.73,8.04,0.90,0.01,0.31,-0.30,12
713068,-5.56,-1.52,8.31,0.32,-0.22,-0.21,45.88,12.50,0.88,-0.14,0.13,0.18,-5.42,-1.66,8.12,0.90,0.01,0.30,-0.31,12
713108,-5.22,-1.64,7.42,0.14,-0.05,-0.23,45.88,12.50,1.25,0.14,-0.04,-0.75,-5.36,-1.60,8.18,0.90,0.01,0.30,-0.31,12
714855,-4.61,-4.40,7.70,-0.29,-0.18,-0.38,40.44,13.00,0.19,0.37,-0.32,0.16,-4.98,-4.08,7.53,0.90,-0.13,0.32,-0.27,12
714896,-4.64,-4.55,7.62,-0.33,-0.20,-0.45,40.25,14.56,-2.06,0.22,-0.30,0.11,-4.87,-4.25,7.51,0.90,-0.14,0.32,-0.28,12
714935,-4.80,-4.74,7.58,-0.20,-0.24,-0.38,40.50,14.19,-0.62,0.04,-0.12,0.16,-4.72,-4.43,7.49,0.89,-0.15,0.31,-0.28,12
714975,-4.76,-4.86,7.54,-0.12,-0.27,-0.43,38.94,15.19,-0.12,-0.18,-0.30,0.03,-4.58,-4.55,7.51,0.89,-0.16,0.31,-0.29,12
715016,-4.84,-4.89,7.46,-0.07,-0.31,-0.45,38.38,14.88,-0.50,-0.43,-0.21,-0.07,-4.41,-4.68,7.54,0.89,-0.16,0.30,-0.29,12
715055,-5.11,-4.97,7.43,0.00,-0.28,-0.15,36.88,14.50,-1.06,-0.87,-0.21,-0.17,-4.23,-4.76,7.59,0.89,-0.17,0.30,-0.30,12
715096,-4.64,-4.89,7.43,-0.09,-0.03,0.29,36.94,14.00,-2.81,-0.90,-0.21,-0.20,-4.16,-4.77,7.62,0.89,-0.17,0.29,-0.30,12
715136,-3.99,-4.86,7.54,-0.18,0.18,0.43,37.00,15.06,-0.69,0.24,-0.10,-0.05,-4.23,-4.76,7.59,0.89,-0.17,0.30,-0.29,12
715176,-3.54,-4.78,7.50,-0.27,0.33,0.41,35.94,14.50,-1.50,0.86,-0.05,-0.01,-4.39,-4.73,7.52,0.89,-0.17,0.30,-0.28,12
715216,-3.50,-4.82,7.62,-0.07,0.16,0.06,37.38,15.75,-1.75,1.05,-0.08,0.20,-4.55,-4.74,7.42,0.89,-0.17,0.31,-0.28,12
715256,-3.73,-5.05,7.58,-0.03,-0.02,-0.25,39.56,14.75,-1.06,1.01,-0.21,0.19,-4.58,-4.77,7.39,0.89,-0.17,0.31,-0.28,12
715296,-4.07,-5.16,7.54,0.06,0.00,-0.37,38.56,15.75,0.19,0.45,-0.34,0.16,-4.52,-4.83,7.38,0.89,-0.17,0.31,-0.28,12
715336,-4.45,-5.24,7.38,0.04,-0.07,-0.40,39.94,14.81,-1.38,-0.02,-0.35,-0.01,-4.43,-4.89,7.40,0.89,-0.17,0.31,-0.29,12
715376,-4.76,-5.24,7.23,-0.01,-0.15,-0.31,38.25,14.88,-1.25,-0.43,-0.30,-0.19,-4.33,-4.95,7.42,0.89,-0.18,0.31,-0.30,12
715416,-4.76,-5.28,7.27,-0.07,-0.12,-0.24,39.31,16.75,-1.25,-0.62,-0.20,-0.13,-4.22,-5.01,7.45,0.89,-0.18,0.30,-0.30,12
715457,-4.91,-5.28,7.16,-0.13,0.02,0.01,38.00,16.06,-1.00,-0.77,-0.21,-0.28,-4.15,-5.07,7.44,0.89,-0.18,0.30,-0.30,12
715497,-4.76,-5.12,7.38,-0.21,0.14,0.02,37.69,15.19,-2.06,-0.59,0.00,-0.01,-4.16,-5.12,7.40,0.88,-0.19,0.30,-0.30,12
715537,-4.22,-5.12,7.39,0.16,0.21,0.33,39.12,17.00,-0.19,0.01,0.01,0.04,-4.23,-5.13,7.35,0.88,-0.18,0.31,-0.30,12
715576,-3.92,-4.63,7.16,-0.06,0.27,0.38,39.38,17.06,-1.25,0.08,0.04,0.01,-4.38,-5.05,7.34,0.89,-0.18,0.31,-0.29,12
715617,-3.65,-4.86,6.93,-0.20,0.11,0.15,39.94,16.50,-0.06,0.87,0.16,-0.34,-4.52,-5.02,7.27,0.88,-0.18,0.32,-0.29,12
715657,-3.61,-4.89,6.96,-0.27,0.07,-0.06,39.62,16.69,0.62,0.95,0.17,-0.24,-4.56,-5.06,7.20,0.88,-0.18,0.32,-0.29,12
715697,-3.80,-5.09,6.96,-0.33,-0.01,-0.37,39.38,17.06,-1.25,0.75,0.09,-0.17,-4.55,-5.17,7.13,0.88,-0.19,0.32,-0.29,12
715736,-4.61,-5.86,7.38,-0.23,-0.06,-0.37,39.19,16.62,0.19,0.20,-0.21,-0.07,-4.46,-5.34,7.07,0.88,-0.20,0.32,-0.29,12
715777,-4.76,-6.01,7.54,-0.00,-0.03,-0.10,38.94,16.31,2.00,-0.39,-0.57,0.50,-4.37,-5.44,7.04,0.88,-0.20,0.32,-0.30,12
715817,-4.61,-6.08,7.54,0.04,0.06,0.08,40.94,17.12,0.06,-0.25,-0.64,0.49,-4.36,-5.45,7.05,0.88,-0.20,0.32,-0.30,12
715857,-4.38,-6.12,7.27,0.01,0.09,0.12,38.94,17.50,0.88,0.02,-0.69,0.23,-4.40,-5.43,7.04,0.88,-0.20,0.32,-0.30,12
715897,-4.30,-6.24,7.54,0.09,0.10,0.11,39.50,17.31,-0.50,0.18,-0.80,0.36,-4.45,-5.40,7.03,0.88,-0.20,0.32,-0.30,12
715937,-4.64,-6.12,7.50,0.27,0.21,0.29,40.88,17.62,1.81,-0.14,-0.78,0.46,-4.51,-5.34,7.04,0.88,-0.19,0.33,-0.29,12
715977,-4.64,-5.74,7.23,0.43,0.25,0.31,41.19,17.06,1.50,-0.00,-0.54,0.17,-4.64,-5.20,7.06,0.88,-0.18,0.33,-0.29,12
716017,-4.64,-5.01,7.00,0.38,0.13,0.21,40.56,16.75,0.75,0.12,0.02,-0.11,-4.77,-5.03,7.12,0.88,-0.17,0.33,-0.29,12
716057,-4.64,-4.78,6.70,0.06,0.06,0.15,40.81,17.94,1.44,0.22,0.33,-0.61,-4.83,-4.92,7.16,0.88,-0.17,0.33,-0.29,12
716097,-4.68,-4.63,6.96,0.16,0.16,0.17,39.06,17.50,1.62,0.21,0.23,-0.19,-4.89,-4.86,7.16,0.88,-0.16,0.34,-0.29,12
716137,-4.76,-4.67,6.81,-0.01,0.15,0.14,41.88,18.31,1.94,0.20,0.14,-0.34,-4.96,-4.80,7.15,0.88,-0.16,0.34,-0.29,12
716177,-4.84,-4.70,7.00,0.14,0.11,0.09,41.19,17.38,1.12,0.20,0.07,-0.12,-5.03,-4.77,7.12,0.88,-0.16,0.34,-0.28,12
716217,-4.88,-4.25,6.70,0.03,0.01,-0.01,40.62,17.38,0.75,0.07,0.48,-0.20,-5.05,-4.73,7.13,0.88,-0.16,0.34,-0.28,12
716257,-4.95,-4.25,6.70,0.02,-0.03,-0.09,40.94,18.25,1.81,0.10,0.48,-0.43,-5.05,-4.73,7.13,0.88,-0.16,0.34,-0.29,12
716297,-5.11,-4.32,6.58,-0.18,-0.04,-0.06,42.31,18.00,2.00,-0.08,0.44,-0.55,-5.02,-4.76,7.13,0.88,-0.16,0.34,-0.29,12
716337,-5.11,-4.70,6.89,-0.18,-0.04,-0.01,42.00,18.81,2.25,-0.11,0.12,-0.22,-5.00,-4.82,7.11,0.88,-0.16,0.34,-0.29,12
716377,-4.84,-5.12,7.32,-0.10,-0.01,0.01,42.19,18.62,0.88,-0.00,-0.11,0.07,-4.98,-4.87,7.09,0.88,-0.17,0.34,-0.28,12
716417,-4.72,-5.09,7.31,-0.02,0.01,-0.02,41.06,18.75,2.12,0.26,-0.20,0.24,-4.98,-4.89,7.07,0.88,-0.17,0.34,-0.28,12
716458,-4.72,-5.16,7.20,-0.04,0.02,-0.05,42.56,17.69,3.81,0.26,-0.26,0.14,-4.98,-4.91,7.05,0.88,-0.17,0.34,-0.28,12
716498,-4.68,-5.24,7.32,0.06,0.05,-0.08,41.12,17.69,0.81,0.29,-0.32,0.27,-4.98,-4.92,7.05,0.88,-0.17,0.34,-0.29,12
716538,-5.07,-4.97,6.86,0.03,0.04,-0.10,41.75,18.00,1.56,0.13,-0.16,0.11,-4.97,-4.92,7.05,0.88,-0.17,0.34,-0.29,12
716578,-5.18,-5.01,6.86,-0.06,0.02,-0.01,40.81,18.50,1.06,-0.22,-0.07,-0.20,-4.96,-4.94,7.05,0.88,-0.17,0.34,-0.29,12
716618,-5.03,-5.20,7.08,-0.11,0.05,0.08,43.25,18.38,2.44,-0.06,-0.24,0.06,-4.97,-4.96,7.02,0.88,-0.17,0.34,-0.29,12
716658,-4.76,-5.36,7.35,0.04,0.06,0.02,43.06,17.81,1.69,0.24,-0.39,0.36,-5.00,-4.97,6.99,0.88,-0.17,0.34,-0.29,12
716699,-4.64,-5.36,7.20,0.05,0.09,-0.03,41.00,17.69,0.00,0.37,-0.29,0.28,-5.02,-4.95,6.99,0.88,-0.17,0.35,-0.29,12
716738,-4.80,-5.16,7.12,0.16,0.10,-0.08,40.50,17.56,2.50,0.38,-0.41,0.21,-5.02,-4.95,6.98,0.88,-0.17,0.35,-0.29,12
716778,-4.99,-4.86,6.89,0.10,0.11,-0.09,42.00,17.62,3.06,0.05,0.06,-0.10,-5.04,-4.92,6.99,0.88,-0.16,0.35,-0.29,12
716818,-5.14,-4.55,6.74,0.08,0.07,-0.05,42.56,18.62,0.94,-0.09,0.36,-0.26,-5.05,-4.91,7.00,0.87,-0.16,0.35,-0.30,12
716859,-5.30,-4.44,6.39,-0.14,0.02,-0.04,42.56,18.62,0.94,-0.28,0.52,-0.60,-5.05,-4.92,6.99,0.87,-0.16,0.35,-0.30,12
716898,-5.11,-4.70,6.78,-0.37,-0.11,-0.19,41.06,18.19,2.50,-0.26,0.55,-0.56,-5.04,-4.98,6.95,0.87,-0.17,0.35,-0.30,12
716938,-5.07,-5.01,7.46,-0.39,-0.16,0.02,42.62,19.12,3.06,-0.10,0.11,0.57,-4.97,-5.12,6.90,0.87,-0.18,0.35,-0.30,12
716978,-5.11,-5.16,7.24,-0.38,0.06,0.24,41.38,19.12,1.06,-0.13,0.02,0.40,-4.98,-5.19,6.84,0.87,-0.18,0.35,-0.29,12
717020,-5.49,-5.62,8.99,-0.61,0.31,-0.04,41.56,18.50,2.56,0.01,0.06,0.45,-5.00,-5.34,6.71,0.87,-0.19,0.36,-0.29,12
717058,-5.11,-6.39,7.84,0.65,0.56,0.49,42.50,18.56,2.69,-0.34,-0.25,2.42,-5.15,-5.38,6.58,0.87,-0.19,0.37,-0.28,12
717098,-5.03,-5.59,6.05,1.04,0.47,0.41,43.19,18.56,4.62,0.36,-0.52,-0.58,-5.39,-5.06,6.62,0.87,-0.17,0.37,-0.28,12
717138,-5.06,-4.51,4.78,0.40,0.11,0.04,42.69,17.44,2.44,0.50,0.24,-1.95,-5.56,-4.75,6.73,0.87,-0.15,0.37,-0.29,12
717180,-5.26,-4.09,4.86,-0.39,-0.04,0.11,42.75,17.44,2.75,0.29,0.87,-2.46,-5.59,-4.70,6.75,0.87,-0.15,0.37,-0.28,12
717218,-5.41,-4.48,5.97,-1.03,-0.15,-0.23,43.56,16.88,2.56,0.33,0.73,-1.79,-5.59,-4.82,6.65,0.87,-0.16,0.38,-0.28,12
717258,-6.64,-5.66,9.27,0.37,0.37,0.80,41.50,17.31,3.38,-1.04,-0.66,2.77,-5.60,-5.01,6.49,0.87,-0.17,0.38,-0.27,12
717298,-6.14,-6.08,8.57,0.51,1.08,1.57,43.25,17.44,3.25,-0.25,-1.42,2.09,-5.89,-4.66,6.48,0.87,-0.14,0.39,-0.26,12
717341,-6.06,-5.16,6.96,1.07,2.62,2.88,43.25,16.25,4.00,-0.42,-1.69,0.58,-6.68,-3.94,6.20,0.87,-0.10,0.43,-0.23,12
717378,-5.61,-3.17,5.39,0.54,2.11,1.56,47.75,14.19,5.38,1.58,-2.17,1.36,-7.64,-2.99,5.60,0.86,-0.05,0.47,-0.20,12
717418,-5.95,-2.14,4.05,0.04,0.46,-0.17,52.19,11.50,10.38,2.18,0.43,-1.05,-8.12,-2.56,5.10,0.85,-0.04,0.49,-0.19,12
717458,-6.59,-1.91,3.52,-0.26,-0.91,-1.35,53.56,12.19,10.50,1.48,0.83,-1.56,-8.08,-2.73,5.08,0.85,-0.05,0.49,-0.20,12
717501,-7.52,-3.06,4.94,-0.46,-1.37,-1.70,53.00,12.19,9.44,0.61,1.07,-1.70,-7.66,-3.29,5.38,0.85,-0.08,0.47,-0.23,12
717539,-7.56,-3.98,5.86,-0.21,-0.95,-1.28,50.69,13.75,7.94,-0.37,0.79,-0.76,-7.15,-3.84,5.70,0.85,-0.10,0.45,-0.25,12
717580,-7.60,-4.51,5.89,-0.52,-0.41,-0.73,50.69,15.88,6.44,-0.82,-0.29,0.01,-6.77,-4.23,5.88,0.85,-0.12,0.43,-0.26,12
717619,-7.52,-4.82,5.70,-0.82,-0.09,-0.24,47.75,14.19,5.75,-0.93,-0.30,-0.16,-6.59,-4.52,5.86,0.85,-0.14,0.43,-0.26,12
717660,-7.29,-4.93,5.62,-0.93,0.01,-0.05,48.94,15.38,6.94,-0.75,-0.15,-0.08,-6.54,-4.78,5.70,0.85,-0.15,0.44,-0.26,12
717700,-6.87,-5.36,6.35,-0.44,0.04,0.03,48.50,15.38,6.88,-0.62,-0.12,0.43,-6.55,-4.96,5.54,0.85,-0.17,0.44,-0.25,12
717740,-6.68,-5.39,6.28,-0.13,-0.08,0.01,48.44,16.50,7.88,-0.12,-0.36,0.82,-6.55,-5.03,5.46,0.85,-0.17,0.44,-0.25,12
717780,-6.55,-5.36,5.93,-0.03,-0.13,0.02,49.06,15.38,7.69,-0.03,-0.30,0.46,-6.53,-5.05,5.47,0.85,-0.17,0.44,-0.25,12
717820,-6.41,-5.32,5.59,-0.08,-0.04,-0.00,49.31,16.56,8.00,0.10,-0.25,0.09,-6.51,-5.06,5.49,0.85,-0.17,0.44,-0.24,12
717859,-6.37,-5.16,5.47,-0.11,0.01,0.00,47.25,15.56,7.12,0.14,-0.16,-0.00,-6.51,-5.08,5.48,0.85,-0.17,0.44,-0.24,12
717900,-6.41,-5.20,5.51,-0.11,-0.03,0.00,47.31,14.69,8.25,0.09,-0.09,0.05,-6.50,-5.11,5.46,0.85,-0.18,0.44,-0.24,12
717940,-6.41,-5.24,5.59,-0.10,-0.02,0.00,48.38,16.50,7.50,0.09,-0.11,0.14,-6.50,-5.13,5.45,0.85,-0.18,0.44,-0.24,12
717980,-6.33,-5.16,5.62,-0.02,0.06,0.02,47.31,16.19,7.06,0.17,-0.02,0.20,-6.50,-5.15,5.43,0.85,-0.18,0.44,-0.24,12
718019,-6.48,-5.09,5.39,-0.07,0.21,0.17,48.12,15.94,6.44,0.20,0.09,0.19,-6.53,-5.14,5.40,0.85,-0.18,0.44,-0.24,12
718060,-6.21,-5.01,5.55,-0.03,0.17,0.00,48.75,15.62,8.38,0.39,0.11,0.22,-6.61,-5.12,5.33,0.84,-0.18,0.45,-0.24,12
718100,-6.02,-4.86,5.28,0.05,-0.05,-0.30,48.38,16.50,7.50,0.59,0.27,-0.02,-6.62,-5.13,5.30,0.84,-0.18,0.45,-0.24,12
718140,-6.06,-4.93,5.13,0.06,-0.31,-0.71,47.94,16.50,7.81,0.45,0.30,-0.21,-6.51,-5.23,5.34,0.84,-0.18,0.44,-0.25,12
718180,-6.18,-5.51,5.28,0.03,-0.53,-0.86,49.62,16.31,7.38,0.16,0.29,-0.25,-6.26,-5.41,5.45,0.84,-0.19,0.43,-0.26,12
718220,-6.17,-5.82,5.59,-0.03,-0.51,-0.81,48.81,16.88,7.56,-0.22,-0.20,0.00,-5.95,-5.62,5.59,0.84,-0.20,0.42,-0.27,12
718260,-6.21,-6.01,5.86,0.03,-0.33,-0.58,45.44,18.12,4.94,-0.54,-0.21,0.17,-5.67,-5.80,5.69,0.84,-0.21,0.41,-0.28,12
718300,-6.10,-6.05,5.97,0.07,-0.13,-0.26,46.06,18.69,5.69,-0.61,-0.15,0.21,-5.49,-5.90,5.76,0.84,-0.21,0.40,-0.29,12
718340,-5.83,-6.01,5.89,0.10,0.04,0.07,46.88,19.12,5.06,-0.55,-0.17,0.16,-5.43,-5.91,5.80,0.84,-0.21,0.40,-0.29,12
718380,-5.56,-5.77,5.74,0.05,0.12,0.13,45.25,18.94,5.94,-0.09,0.10,-0.06,-5.48,-5.88,5.80,0.84,-0.21,0.40,-0.29,12
718420,-5.49,-5.77,5.59,-0.02,0.00,0.01,47.38,19.12,5.12,0.03,0.07,-0.21,-5.52,-5.85,5.80,0.84,-0.21,0.41,-0.29,12
718460,-5.49,-5.73,5.70,-0.01,-0.04,-0.01,45.44,19.06,4.12,0.03,0.11,-0.09,-5.52,-5.85,5.80,0.84,-0.21,0.40,-0.29,12
718500,-5.26,-5.97,5.93,0.03,-0.02,-0.09,45.88,19.25,6.75,0.13,0.00,0.05,-5.50,-5.86,5.80,0.84,-0.21,0.40,-0.29,12
718541,-5.26,-6.01,5.93,0.06,-0.11,-0.21,45.38,18.94,6.69,0.21,-0.13,0.11,-5.47,-5.88,5.82,0.84,-0.21,0.40,-0.29,12
718581,-5.18,-6.01,5.97,0.11,-0.19,-0.32,45.62,18.44,5.69,0.20,-0.10,0.10,-5.38,-5.91,5.87,0.84,-0.21,0.40,-0.30,12
718621,-5.07,-5.89,6.01,0.15,-0.18,-0.40,43.69,19.19,4.31,0.18,0.06,0.07,-5.25,-5.95,5.94,0.84,-0.21,0.39,-0.31,12
718661,-4.91,-5.89,5.93,0.14,-0.21,-0.54,43.69,19.50,4.25,0.11,0.19,-0.04,-5.10,-6.01,6.01,0.84,-0.22,0.39,-0.31,12
718701,-5.07,-5.93,5.89,0.08,-0.22,-0.51,44.50,21.25,5.00,-0.14,0.16,-0.19,-4.92,-6.09,6.09,0.84,-0.22,0.38,-0.32,12
718741,-5.07,-5.97,5.97,0.04,-0.15,-0.40,44.00,20.62,5.38,-0.32,0.20,-0.17,-4.75,-6.16,6.14,0.84,-0.22,0.37,-0.33,12
718781,-5.11,-6.12,5.97,-0.03,-0.12,-0.24,42.50,21.19,3.62,-0.48,0.11,-0.20,-4.62,-6.23,6.17,0.84,-0.23,0.37,-0.33,12
718821,-5.14,-6.43,6.05,-0.10,-0.09,-0.02,42.50,21.50,3.25,-0.59,0.00,-0.18,-4.55,-6.27,6.19,0.84,-0.23,0.37,-0.34,12
718861,-5.11,-6.62,6.20,-0.13,-0.01,0.16,42.12,22.00,3.56,-0.57,-0.33,0.04,-4.54,-6.29,6.16,0.84,-0.23,0.37,-0.33,12
718901,-5.07,-6.62,6.35,-0.06,0.03,0.32,42.81,20.94,3.00,-0.47,-0.33,0.21,-4.59,-6.29,6.14,0.84,-0.23,0.37,-0.33,12
718941,-4.99,-6.46,6.35,0.01,0.07,0.45,42.06,21.75,3.19,-0.29,-0.24,0.23,-4.70,-6.23,6.12,0.84,-0.23,0.37,-0.32,12
718981,-4.45,-6.05,6.16,0.01,0.09,0.42,44.94,22.19,4.31,0.07,-0.17,0.17,-4.83,-6.14,6.11,0.84,-0.23,0.38,-0.32,12
719021,-4.26,-5.82,6.05,-0.02,0.07,0.25,43.44,21.25,4.12,0.68,0.25,-0.05,-4.95,-6.06,6.09,0.84,-0.22,0.38,-0.31,12
719061,-4.18,-5.70,6.05,-0.03,-0.01,-0.03,44.25,20.38,4.31,0.82,0.33,-0.03,-5.00,-6.03,6.08,0.84,-0.22,0.38,-0.31,12
719101,-4.22,-5.82,6.09,-0.03,-0.02,-0.20,43.38,21.56,3.75,0.75,0.24,0.02,-4.98,-6.05,6.07,0.84,-0.22,0.38,-0.31,12
719141,-4.88,-6.32,6.24,0.01,0.03,-0.18,43.56,20.69,2.69,0.40,0.02,0.09,-4.93,-6.10,6.07,0.84,-0.22,0.38,-0.31,12
719181,-5.22,-6.32,6.16,0.03,0.03,-0.05,44.06,20.31,5.69,-0.32,-0.19,0.09,-4.90,-6.12,6.07,0.84,-0.22,0.38,-0.32,12
719221,-5.26,-6.27,6.12,0.03,0.04,0.07,44.81,20.44,4.69,-0.35,-0.16,0.05,-4.91,-6.12,6.07,0.84,-0.22,0.38,-0.32,12
719261,-5.18,-6.20,6.12,0.03,0.08,0.14,43.19,19.75,3.81,-0.24,-0.11,0.05,-4.94,-6.09,6.07,0.84,-0.22,0.38,-0.31,12
719301,-5.07,-6.08,5.97,0.01,0.10,0.18,43.50,21.19,4.50,-0.07,-0.03,-0.02,-4.99,-6.05,6.06,0.84,-0.22,0.38,-0.31,12
719341,-5.14,-5.93,5.93,-0.04,0.11,0.21,42.94,19.38,4.88,-0.08,0.09,-0.11,-5.06,-6.02,6.04,0.84,-0.22,0.38,-0.31,12
719381,-5.45,-5.86,5.86,-0.09,0.23,0.44,44.25,20.12,4.31,-0.29,0.12,-0.14,-5.16,-5.98,6.00,0.84,-0.22,0.39,-0.30,12
719428,-5.49,-5.82,5.74,-0.17,0.25,0.51,45.38,20.44,5.50,-0.11,0.04,-0.07,-5.34,-5.90,5.92,0.84,-0.21,0.40,-0.30,12
719465,-5.49,-5.86,5.89,-0.17,0.10,0.38,46.31,19.94,6.38,0.01,0.02,-0.09,-5.50,-5.84,5.84,0.84,-0.21,0.40,-0.29,12
719505,-5.37,-5.82,5.93,-0.10,0.03,0.30,45.81,19.56,5.94,0.22,-0.02,0.14,-5.59,-5.80,5.79,0.84,-0.21,0.41,-0.28,12
719545,-5.91,-5.82,5.70,-0.22,0.36,0.66,47.12,18.50,6.94,-0.20,-0.08,-0.03,-5.71,-5.73,5.73,0.84,-0.21,0.41,-0.27,12
719585,-6.11,-5.78,5.74,-0.17,0.43,0.80,47.62,18.25,7.38,-0.14,-0.16,0.15,-5.96,-5.62,5.59,0.84,-0.20,0.42,-0.26,12
719625,-5.72,-5.51,5.39,-0.15,0.20,0.53,48.62,18.31,7.81,0.30,-0.19,0.23,-6.21,-5.48,5.47,0.84,-0.20,0.43,-0.25,12
719666,-5.98,-5.51,5.28,-0.20,0.17,0.37,48.81,17.75,7.19,0.38,-0.12,-0.10,-6.36,-5.39,5.38,0.84,-0.20,0.44,-0.24,12
719706,-6.10,-5.62,5.47,-0.02,0.08,0.13,48.25,18.56,8.19,0.36,-0.28,0.16,-6.46,-5.34,5.31,0.84,-0.20,0.44,-0.24,12
719746,-6.49,-5.70,5.39,-0.17,0.10,0.35,49.31,17.75,7.25,0.02,-0.38,0.11,-6.50,-5.32,5.29,0.84,-0.19,0.44,-0.23,12
719786,-7.63,-5.78,5.55,-0.25,0.67,1.22,51.19,16.56,11.06,-0.75,-0.69,-0.01,-6.69,-5.20,5.17,0.84,-0.19,0.45,-0.22,12
719826,-7.21,-5.20,5.51,-0.04,0.73,1.26,51.06,16.31,10.75,-0.12,-0.30,0.58,-7.09,-4.90,4.93,0.84,-0.18,0.47,-0.20,12
719866,-7.55,-4.70,4.63,-0.25,0.54,1.36,53.25,15.31,11.44,-0.11,-0.13,-0.10,-7.45,-4.57,4.73,0.84,-0.17,0.49,-0.18,12
719906,-8.02,-4.59,4.55,-0.17,0.54,1.31,54.12,13.81,12.69,-0.23,-0.39,0.04,-7.79,-4.20,4.52,0.84,-0.15,0.50,-0.15,12
719946,-6.87,-3.59,4.32,-0.05,0.24,0.70,52.88,13.12,13.31,0.78,-0.21,0.25,-8.07,-3.84,4.34,0.84,-0.14,0.51,-0.14,12
719986,-6.49,-3.25,4.32,0.12,-0.37,-0.27,55.25,13.88,13.94,1.67,0.44,0.02,-8.16,-3.69,4.30,0.84,-0.14,0.51,-0.13,12
720026,-6.06,-3.17,4.44,0.24,-0.95,-1.20,52.62,14.38,11.06,1.91,0.67,-0.07,-7.98,-3.84,4.51,0.84,-0.15,0.50,-0.15,12
720066,-6.71,-3.59,4.21,-0.06,-0.52,-0.96,52.81,15.81,11.00,0.89,0.59,-0.61,-7.61,-4.18,4.82,0.85,-0.16,0.48,-0.16,12
720106,-8.44,-4.89,5.13,-0.14,0.23,-0.06,52.38,14.94,11.75,-0.41,0.22,-0.34,-7.41,-4.43,4.90,0.85,-0.17,0.48,-0.17,12
720146,-8.24,-4.93,5.28,-0.09,0.28,0.27,53.75,15.00,11.88,-0.77,-0.51,0.48,-7.48,-4.42,4.80,0.84,-0.17,0.48,-0.17,12
720187,-7.63,-4.67,5.09,0.07,-0.04,0.02,52.81,15.25,11.38,-0.08,-0.30,0.37,-7.55,-4.37,4.72,0.84,-0.16,0.49,-0.17,12
720226,-7.18,-4.44,4.82,0.10,-0.13,-0.07,52.12,14.62,10.62,0.35,-0.07,0.05,-7.52,-4.37,4.77,0.84,-0.16,0.48,-0.17,12
720267,-7.32,-4.36,4.82,0.12,0.16,0.04,52.50,15.75,12.06,0.07,0.00,-0.17,-7.51,-4.36,4.80,0.84,-0.16,0.48,-0.17,12
720306,-7.48,-4.28,4.63,0.00,0.10,-0.05,52.38,14.94,11.75,0.06,0.04,-0.14,-7.54,-4.32,4.77,0.84,-0.16,0.48,-0.17,12
720347,-7.67,-4.25,4.52,-0.03,-0.15,-0.16,53.38,16.50,11.00,-0.14,0.11,-0.26,-7.53,-4.35,4.77,0.84,-0.16,0.48,-0.17,12
720387,-7.67,-4.28,4.67,0.04,-0.21,-0.17,54.12,15.62,11.19,-0.22,0.12,-0.15,-7.45,-4.41,4.82,0.84,-0.16,0.48,-0.17,12
720427,-7.48,-4.36,4.86,0.05,0.00,-0.03,51.88,16.06,10.50,-0.20,0.12,-0.13,-7.40,-4.44,4.88,0.85,-0.16,0.48,-0.18,12
720466,-7.29,-4.44,4.90,0.04,0.06,0.02,52.31,15.81,10.94,0.12,0.00,0.02,-7.41,-4.44,4.88,0.84,-0.16,0.48,-0.18,12
720507,-7.14,-4.28,4.82,-0.03,-0.08,-0.14,51.62,15.50,9.44,0.27,0.16,-0.05,-7.41,-4.44,4.87,0.84,-0.16,0.48,-0.18,12
720547,-7.02,-4.32,4.82,-0.06,-0.15,-0.25,52.19,16.12,9.81,0.34,0.17,-0.07,-7.36,-4.49,4.89,0.85,-0.17,0.47,-0.18,12
720587,-7.14,-4.55,4.97,0.01,0.02,-0.25,51.44,16.06,10.44,0.27,0.23,-0.13,-7.29,-4.59,4.91,0.84,-0.17,0.47,-0.18,12
720627,-7.52,-4.63,4.86,0.02,0.10,-0.18,52.62,15.88,9.88,0.11,0.10,0.07,-7.24,-4.65,4.91,0.84,-0.17,0.47,-0.19,12
720667,-7.86,-4.70,4.71,-0.03,-0.03,-0.06,51.25,16.38,9.31,-0.63,-0.02,-0.18,-7.23,-4.69,4.89,0.84,-0.17,0.47,-0.19,12
720708,-7.90,-4.74,4.67,-0.06,-0.05,0.09,51.25,16.38,9.31,-0.68,-0.04,-0.23,-7.22,-4.70,4.90,0.84,-0.17,0.47,-0.19,12
720749,-7.14,-4.86,4.97,-0.04,0.03,0.07,50.12,15.94,10.62,-0.25,-0.17,-0.07,-7.23,-4.69,4.89,0.84,-0.17,0.47,-0.19,12
720788,-7.09,-4.82,5.09,0.02,0.01,0.01,50.38,16.81,11.69,0.11,-0.18,0.10,-7.24,-4.68,4.88,0.84,-0.17,0.47,-0.19,12
720828,-7.18,-4.82,5.01,0.07,-0.03,0.00,53.75,16.50,10.75,0.08,-0.16,0.12,-7.25,-4.66,4.89,0.84,-0.17,0.47,-0.19,12
720868,-7.18,-4.67,4.82,0.01,0.04,-0.00,53.75,16.50,10.75,0.07,-0.01,-0.09,-7.24,-4.66,4.91,0.84,-0.17,0.47,-0.19,12
720911,-7.55,-4.70,4.82,0.05,-0.01,0.00,50.44,15.38,10.38,-0.07,0.03,-0.07,-7.26,-4.66,4.89,0.84,-0.17,0.47,-0.19,12
720947,-7.44,-4.74,4.78,0.01,-0.13,-0.01,53.00,16.44,11.75,-0.30,-0.05,-0.09,-7.25,-4.65,4.91,0.84,-0.17,0.47,-0.19,12
720988,-7.36,-4.74,4.94,0.04,-0.09,0.03,51.94,16.19,8.31,-0.14,-0.09,-0.01,-7.22,-4.65,4.95,0.85,-0.17,0.47,-0.19,12
721031,-7.02,-4.48,4.94,0.05,-0.04,0.04,50.75,15.75,9.31,-0.04,0.07,0.04,-7.21,-4.62,4.98,0.85,-0.17,0.47,-0.19,12
721071,-6.94,-4.63,4.97,0.01,-0.14,-0.08,50.88,16.31,9.62,0.18,0.14,-0.06,-7.20,-4.62,5.00,0.85,-0.17,0.47,-0.19,12
721108,-6.98,-4.78,5.09,0.06,-0.19,-0.20,50.56,16.56,10.31,0.21,0.01,-0.08,-7.15,-4.64,5.05,0.85,-0.17,0.46,-0.19,12
721148,-6.91,-4.86,5.28,0.18,-0.21,-0.30,52.31,17.06,9.75,0.16,-0.17,0.16,-7.07,-4.69,5.12,0.85,-0.17,0.46,-0.20,12
721188,-6.71,-4.78,5.28,0.27,-0.32,-0.56,50.38,16.62,8.88,0.24,-0.03,0.05,-6.95,-4.75,5.23,0.85,-0.17,0.45,-0.20,12
721231,-6.33,-4.70,5.43,0.26,-0.51,-0.80,50.81,17.88,8.12,0.23,0.20,-0.06,-6.75,-4.87,5.38,0.85,-0.18,0.44,-0.22,12
721268,-6.18,-4.86,5.55,0.24,-0.51,-0.86,48.62,18.31,7.81,0.15,0.33,-0.14,-6.48,-5.03,5.57,0.85,-0.18,0.43,-0.23,12
721308,-6.14,-5.01,5.62,0.20,-0.29,-0.75,45.94,18.19,5.31,0.07,0.18,-0.11,-6.20,-5.19,5.73,0.85,-0.19,0.42,-0.25,12
721348,-6.18,-5.16,5.66,0.08,-0.13,-0.52,45.25,18.62,5.94,-0.18,0.15,-0.16,-5.99,-5.31,5.82,0.85,-0.19,0.41,-0.26,12
721391,-6.21,-5.32,5.74,0.02,-0.03,-0.30,44.69,19.25,5.12,-0.34,0.16,-0.16,-5.88,-5.41,5.86,0.85,-0.19,0.41,-0.26,12
721428,-6.17,-5.36,5.70,-0.03,0.01,-0.16,45.31,18.94,6.31,-0.40,0.15,-0.12,-5.81,-5.47,5.87,0.85,-0.20,0.41,-0.27,12
721468,-6.11,-5.51,5.74,-0.07,0.01,-0.08,46.19,19.31,6.00,-0.31,0.00,-0.11,-5.79,-5.51,5.85,0.85,-0.20,0.41,-0.27,12
721508,-6.03,-5.70,5.78,-0.05,0.05,-0.03,46.38,18.75,5.00,-0.24,-0.16,-0.06,-5.78,-5.54,5.84,0.85,-0.20,0.41,-0.27,12
721548,-5.99,-5.66,5.82,-0.03,0.07,0.00,45.31,19.56,5.56,-0.20,-0.12,0.01,-5.79,-5.55,5.80,0.85,-0.20,0.41,-0.27,12
721588,-5.95,-5.78,5.89,0.06,-0.02,-0.14,46.25,19.00,6.81,-0.15,-0.21,0.11,-5.80,-5.56,5.79,0.85,-0.20,0.41,-0.27,12
721628,-6.02,-5.74,5.70,0.14,-0.37,-0.53,43.75,19.50,4.62,-0.30,-0.14,-0.12,-5.73,-5.59,5.83,0.85,-0.20,0.40,-0.28,12
721668,-6.11,-5.62,5.66,0.15,-0.88,-0.94,45.25,20.75,4.38,-0.64,0.08,-0.30,-5.46,-5.70,5.97,0.85,-0.21,0.39,-0.29,12
721708,-5.95,-5.82,5.89,0.31,-1.04,-0.81,41.81,20.00,3.25,-0.92,0.03,-0.32,-5.02,-5.84,6.21,0.85,-0.22,0.37,-0.30,12
721749,-4.61,-6.12,6.35,0.29,-0.69,-0.76,40.56,21.38,2.69,-0.66,-0.21,-0.23,-4.59,-5.91,6.47,0.86,-0.22,0.35,-0.31,12
721789,-4.64,-6.08,6.32,0.23,-0.44,-0.74,37.69,20.88,1.94,-0.39,-0.09,-0.32,-4.26,-5.99,6.64,0.86,-0.23,0.33,-0.32,12
721829,-4.99,-5.97,6.39,0.21,-0.35,-0.22,37.50,21.19,0.50,-1.00,0.05,-0.38,-3.99,-6.02,6.77,0.86,-0.23,0.32,-0.33,12
721868,-5.07,-5.89,6.82,0.53,0.10,0.71,38.00,21.56,0.56,-1.14,0.07,-0.05,-3.93,-5.96,6.87,0.86,-0.22,0.32,-0.33,12
721909,-4.15,-5.89,5.86,0.80,0.65,0.98,39.00,21.31,1.44,-0.22,-0.53,-0.26,-4.20,-5.67,6.96,0.87,-0.21,0.32,-0.32,12
721949,-5.03,-5.66,6.77,2.16,1.03,1.99,41.62,19.25,-0.31,-0.35,-0.56,-0.32,-4.68,-5.10,7.09,0.88,-0.16,0.33,-0.31,12
721989,-3.99,-4.97,6.12,3.66,1.12,1.99,41.31,16.69,-2.81,1.37,-1.00,-1.21,-5.36,-3.97,7.34,0.89,-0.09,0.34,-0.29,12
722028,-4.26,-3.98,6.62,2.85,0.52,1.20,44.25,13.50,-4.12,1.63,-1.49,-0.95,-5.89,-2.48,7.57,0.90,-0.01,0.34,-0.29,12
722069,-4.45,-1.03,5.63,0.43,0.15,-0.12,45.94,13.38,-4.56,2.14,-0.62,-2.24,-6.09,-1.67,7.63,0.90,0.02,0.34,-0.29,12
722109,-6.06,-1.98,7.50,0.39,0.04,0.25,45.50,11.06,-5.56,0.06,-0.45,-0.12,-6.12,-1.54,7.62,0.90,0.03,0.34,-0.29,12
722149,-5.87,-1.60,8.89,0.74,0.60,0.36,47.56,11.81,-4.31,0.30,-0.22,1.28,-6.17,-1.38,7.60,0.89,0.04,0.34,-0.29,12
723888,-3.99,1.69,10.76,0.05,1.10,-0.41,29.75,-1.06,-16.06,-2.21,0.08,1.16,-1.78,1.61,9.59,0.98,0.10,0.07,-0.16,12
723924,-4.57,1.39,10.57,0.10,0.09,-0.05,30.81,-0.25,-18.44,-2.50,-0.29,1.04,-2.07,1.67,9.52,0.98,0.11,0.09,-0.17,12
723966,-3.19,1.92,7.70,-0.33,-0.74,0.14,29.88,-0.62,-18.56,-1.27,0.34,-1.88,-1.91,1.58,9.57,0.98,0.10,0.08,-0.17,12
724006,-3.11,1.27,9.65,0.20,-0.73,0.67,27.38,-0.81,-19.94,-1.52,-0.35,0.03,-1.59,1.62,9.62,0.98,0.10,0.06,-0.16,12
724048,-1.54,1.50,10.07,-0.20,-0.42,0.50,26.25,-1.75,-20.81,-0.19,-0.16,0.42,-1.35,1.66,9.65,0.98,0.10,0.05,-0.15,12
724085,-0.12,1.46,10.30,0.03,-0.03,0.07,25.50,-1.19,-20.56,1.12,-0.16,0.63,-1.24,1.62,9.67,0.98,0.09,0.05,-0.14,12
724126,-0.62,1.43,9.92,0.33,0.45,-0.07,29.50,0.50,-18.69,0.71,-0.28,0.27,-1.34,1.70,9.65,0.98,0.10,0.05,-0.14,12
724166,-1.46,1.96,9.04,0.17,0.31,-0.14,25.88,-1.19,-20.88,0.05,0.16,-0.57,-1.52,1.80,9.60,0.98,0.10,0.06,-0.15,12
724208,-2.35,1.88,9.04,0.08,0.00,0.06,26.50,-1.06,-22.25,-0.77,0.04,-0.54,-1.58,1.84,9.58,0.98,0.11,0.06,-0.15,12
724246,-2.46,1.81,9.45,-0.09,-0.12,0.10,28.19,-1.31,-20.25,-0.91,-0.05,-0.12,-1.55,1.86,9.58,0.98,0.11,0.06,-0.14,12
724287,-1.39,1.81,9.34,-0.11,-0.13,0.05,27.19,-1.81,-17.81,0.11,0.00,-0.26,-1.49,1.80,9.60,0.98,0.10,0.06,-0.14,12
724327,-1.23,1.66,9.88,0.01,0.05,0.01,26.06,-1.19,-19.75,0.24,-0.12,0.28,-1.48,1.78,9.60,0.98,0.10,0.06,-0.14,12
724369,-1.23,1.73,9.54,0.03,0.08,-0.08,26.06,-2.56,-21.19,0.27,-0.05,-0.06,-1.51,1.78,9.59,0.98,0.10,0.06,-0.14,12
724407,-1.58,1.73,9.54,0.05,0.04,-0.05,25.88,-2.06,-20.50,-0.04,-0.07,-0.05,-1.54,1.80,9.59,0.98,0.10,0.06,-0.14,12
724447,-1.77,1.85,9.27,-0.04,-0.04,-0.02,25.75,-0.62,-19.50,-0.22,0.06,-0.32,-1.55,1.79,9.59,0.98,0.10,0.06,-0.14,12
724487,-1.66,1.81,9.41,-0.04,-0.03,-0.01,26.94,-1.44,-19.62,-0.12,0.04,-0.18,-1.53,1.77,9.59,0.98,0.10,0.06,-0.14,12
724527,-1.54,1.69,9.53,0.04,-0.01,-0.01,26.12,-0.31,-20.19,-0.00,-0.07,-0.05,-1.54,1.76,9.59,0.98,0.10,0.06,-0.15,12
724567,-1.58,1.66,9.72,0.07,0.02,-0.01,27.25,-1.69,-20.31,-0.03,-0.12,0.14,-1.55,1.78,9.58,0.98,0.10,0.06,-0.15,12
724607,-1.62,1.85,9.31,-0.01,-0.01,-0.08,26.00,-1.00,-17.62,-0.06,0.05,-0.27,-1.55,1.80,9.58,0.98,0.10,0.06,-0.15,12
724647,-1.70,1.81,9.38,-0.12,0.04,-0.04,25.88,-1.44,-20.88,-0.13,0.04,-0.21,-1.56,1.77,9.59,0.98,0.10,0.06,-0.15,12
724687,-1.81,1.69,9.57,-0.24,0.05,-0.05,26.75,-1.12,-20.75,-0.21,0.00,-0.02,-1.59,1.69,9.59,0.98,0.10,0.06,-0.15,12
724727,-1.54,1.66,9.54,-0.27,-0.02,-0.17,27.62,-1.62,-20.62,0.06,0.06,-0.07,-1.60,1.59,9.60,0.98,0.09,0.07,-0.15,12
724767,-1.77,1.35,9.76,-0.02,-0.13,-0.07,27.69,-0.25,-18.50,-0.18,-0.16,0.14,-1.59,1.51,9.62,0.98,0.09,0.07,-0.15,12
724807,-1.70,1.43,9.65,-0.11,-0.11,0.00,28.94,-0.12,-19.12,-0.15,-0.07,0.02,-1.55,1.50,9.62,0.98,0.09,0.06,-0.15,12
724848,-1.58,1.54,9.30,-0.04,-0.09,-0.07,29.25,-0.06,-19.81,-0.06,0.07,-0.33,-1.52,1.47,9.63,0.98,0.09,0.06,-0.15,12
724887,-1.66,1.54,9.49,-0.12,0.03,0.02,26.50,0.00,-20.50,-0.14,0.10,-0.14,-1.52,1.44,9.63,0.98,0.09,0.06,-0.15,12
724927,-1.70,1.39,9.57,-0.03,-0.00,0.02,27.31,-0.56,-17.81,-0.18,-0.02,-0.07,-1.52,1.41,9.64,0.98,0.08,0.06,-0.15,12
724968,-1.66,1.39,9.61,-0.04,-0.01,0.03,27.62,0.06,-19.25,-0.14,-0.01,-0.02,-1.52,1.40,9.63,0.98,0.08,0.06,-0.15,12
725008,-1.50,1.39,9.65,-0.01,-0.02,0.01,27.94,0.44,-20.38,0.00,-0.00,0.02,-1.51,1.39,9.63,0.98,0.08,0.06,-0.15,12
725048,-1.39,1.43,9.54,-0.06,0.04,-0.02,27.12,-0.31,-19.31,0.13,0.06,-0.11,-1.52,1.37,9.64,0.98,0.08,0.06,-0.15,12
725088,-1.66,1.27,9.76,0.06,0.03,0.02,25.88,0.19,-19.19,-0.12,-0.10,0.12,-1.53,1.37,9.64,0.98,0.08,0.06,-0.15,12
725128,-1.62,1.35,9.61,0.00,0.01,-0.00,27.31,-0.31,-18.19,-0.09,-0.04,-0.02,-1.53,1.39,9.62,0.98,0.08,0.06,-0.15,12
725168,-1.50,1.46,9.38,0.05,0.00,0.03,27.56,-0.25,-19.25,0.04,0.08,-0.25,-1.54,1.38,9.62,0.98,0.08,0.06,-0.15,12
725208,-1.62,1.23,9.84,0.30,-0.02,0.07,25.25,-0.69,-19.56,-0.08,-0.23,0.22,-1.54,1.46,9.62,0.98,0.09,0.06,-0.15,12
725249,-1.46,1.66,9.27,0.16,0.04,-0.03,25.81,-0.94,-18.69,0.08,0.10,-0.34,-1.55,1.55,9.60,0.98,0.09,0.06,-0.15,12
725289,-1.66,1.62,9.30,0.08,0.07,-0.00,28.56,-0.19,-18.81,-0.09,0.01,-0.28,-1.57,1.61,9.59,0.98,0.09,0.06,-0.15,12
725329,-1.73,1.66,9.49,0.01,-0.01,0.03,25.56,-1.56,-19.81,-0.15,0.05,-0.08,-1.59,1.60,9.58,0.98,0.09,0.07,-0.15,12
725369,-1.62,1.58,9.76,0.02,0.04,-0.03,26.00,-0.88,-20.50,-0.03,-0.04,0.18,-1.59,1.62,9.58,0.98,0.10,0.07,-0.15,12
725412,-1.35,1.69,9.76,-0.05,0.12,-0.15,28.56,-0.19,-18.75,0.27,0.08,0.19,-1.62,1.61,9.57,0.98,0.10,0.07,-0.15,12
725449,-0.97,1.77,9.57,0.00,-0.11,-0.50,28.06,-0.19,-19.19,0.69,0.21,0.00,-1.66,1.55,9.57,0.98,0.09,0.07,-0.16,12
725489,-0.93,1.35,10.46,0.35,0.34,-0.53,26.94,-0.81,-20.06,0.79,-0.23,0.90,-1.72,1.58,9.55,0.98,0.10,0.07,-0.17,12
725528,-1.31,1.20,10.41,0.43,0.90,-0.59,26.94,-0.81,-20.06,0.70,-0.51,0.94,-2.01,1.70,9.48,0.97,0.11,0.08,-0.18,12
725572,-2.23,1.77,8.88,0.47,0.84,-0.50,29.06,-1.38,-17.56,0.16,-0.08,-0.48,-2.39,1.85,9.37,0.97,0.12,0.10,-0.19,12
725609,-2.84,2.11,8.73,0.30,0.82,-0.49,31.69,0.56,-16.62,-0.11,0.18,-0.52,-2.73,1.94,9.25,0.96,0.13,0.12,-0.20,12
725655,-3.84,2.15,8.23,0.10,0.33,-0.13,32.81,-1.12,-16.38,-0.79,0.17,-0.90,-3.05,1.98,9.13,0.96,0.13,0.13,-0.20,12
725695,-4.18,2.04,8.38,-0.14,-0.17,0.07,32.62,-1.06,-17.50,-1.11,0.05,-0.75,-3.08,1.98,9.13,0.96,0.13,0.13,-0.20,12
725735,-3.65,1.96,8.84,-0.13,-0.38,0.20,31.69,-1.75,-17.25,-0.69,0.02,-0.34,-2.96,1.95,9.18,0.96,0.13,0.13,-0.20,12
725775,-3.07,2.00,9.07,-0.16,-0.31,0.22,31.06,-0.94,-16.62,-0.25,0.08,-0.14,-2.82,1.92,9.22,0.96,0.13,0.12,-0.20,12
725815,-2.54,1.96,9.27,-0.13,-0.20,0.13,30.38,-0.38,-18.56,0.16,0.06,0.01,-2.70,1.90,9.26,0.97,0.12,0.12,-0.19,12
725855,-2.19,1.77,9.65,-0.04,0.05,0.03,30.75,-0.56,-18.88,0.49,-0.10,0.38,-2.68,1.87,9.27,0.97,0.12,0.12,-0.19,12
725895,-2.38,1.77,9.53,0.06,0.15,-0.05,31.38,0.00,-18.06,0.34,-0.11,0.27,-2.73,1.88,9.26,0.97,0.12,0.12,-0.19,12
725935,-2.80,1.88,9.23,0.03,0.09,-0.04,30.38,-1.56,-17.44,-0.02,-0.01,-0.01,-2.78,1.89,9.23,0.97,0.12,0.12,-0.19,12
725975,-3.11,2.00,8.95,-0.07,-0.11,0.01,31.25,-0.56,-18.44,-0.34,0.12,-0.29,-2.77,1.88,9.24,0.97,0.12,0.12,-0.19,12
726015,-3.07,1.85,9.15,-0.04,-0.15,0.10,32.31,0.38,-17.94,-0.35,-0.00,-0.11,-2.73,1.85,9.26,0.97,0.12,0.12,-0.19,12
726055,-2.77,1.85,9.27,-0.04,-0.15,0.11,30.62,0.19,-17.44,-0.11,0.00,-0.01,-2.66,1.84,9.27,0.97,0.12,0.11,-0.19,12
726095,-2.42,1.85,9.34,-0.05,-0.08,0.01,29.81,-1.25,-18.19,0.19,0.01,0.05,-2.61,1.84,9.29,0.97,0.12,0.11,-0.19,12
726135,-2.31,1.88,9.38,0.10,0.02,-0.04,30.38,-0.94,-18.12,0.29,0.05,0.09,-2.60,1.84,9.29,0.97,0.12,0.11,-0.19,12
726176,-2.54,1.88,9.27,0.06,0.09,-0.08,30.25,-0.62,-18.94,0.09,0.02,-0.01,-2.63,1.86,9.27,0.97,0.12,0.11,-0.19,12
726215,-2.77,1.85,9.19,0.08,0.08,-0.06,30.12,-0.44,-17.12,-0.10,-0.04,-0.07,-2.66,1.88,9.26,0.97,0.12,0.11,-0.19,12
726255,-2.92,1.96,9.07,-0.04,0.03,-0.01,30.56,-1.00,-16.69,-0.23,0.08,-0.18,-2.70,1.88,9.25,0.97,0.12,0.12,-0.19,12
726295,-2.92,1.96,9.00,-0.11,-0.07,-0.01,30.94,0.25,-18.12,-0.24,0.11,-0.26,-2.68,1.85,9.26,0.97,0.12,0.12,-0.19,12
726336,-2.73,1.88,9.15,-0.15,-0.08,-0.01,30.81,-0.56,-18.50,-0.06,0.09,-0.12,-2.67,1.80,9.27,0.97,0.12,0.12,-0.19,12
726375,-2.65,1.77,9.34,-0.06,-0.08,0.01,29.06,-0.75,-18.31,-0.02,0.00,0.05,-2.63,1.77,9.29,0.97,0.12,0.11,-0.19,12
726416,-2.50,1.69,9.54,0.04,-0.03,-0.01,29.62,-1.06,-16.81,0.12,-0.07,0.23,-2.62,1.76,9.30,0.97,0.12,0.11,-0.19,12
726456,-2.42,1.73,9.45,0.06,0.04,-0.09,30.94,0.88,-18.50,0.20,-0.04,0.17,-2.62,1.77,9.29,0.97,0.12,0.11,-0.20,12
726499,-2.65,1.81,9.19,0.02,0.11,-0.10,31.50,0.00,-17.38,0.00,0.03,-0.09,-2.66,1.78,9.28,0.97,0.12,0.11,-0.20,12
726536,-2.88,1.88,9.03,-0.08,0.08,-0.04,30.19,-1.19,-18.88,-0.18,0.12,-0.24,-2.70,1.76,9.27,0.97,0.12,0.12,-0.20,12
726576,-2.96,1.81,9.07,-0.09,0.01,0.01,31.81,0.88,-16.25,-0.24,0.08,-0.20,-2.72,1.73,9.27,0.97,0.12,0.12,-0.20,12
726616,-2.88,1.73,9.19,-0.04,-0.00,0.05,30.94,-0.31,-17.75,-0.17,0.03,-0.09,-2.71,1.70,9.28,0.97,0.11,0.12,-0.20,12
726659,-2.65,1.73,9.27,-0.07,-0.01,0.04,31.25,-0.25,-18.81,0.06,0.04,-0.02,-2.71,1.70,9.28,0.97,0.11,0.12,-0.20,12
726696,-2.54,1.66,9.34,-0.03,-0.05,-0.03,30.94,-0.06,-18.12,0.16,-0.02,0.06,-2.70,1.67,9.28,0.97,0.11,0.12,-0.20,12
726736,-2.69,1.62,9.31,-0.01,0.02,0.00,31.75,0.56,-16.19,0.00,-0.05,0.02,-2.70,1.66,9.28,0.97,0.11,0.12,-0.20,12
726776,-2.80,1.66,9.23,0.02,0.01,0.06,31.44,-0.56,-17.31,-0.10,-0.01,-0.05,-2.70,1.66,9.28,0.97,0.11,0.12,-0.20,12
726819,-2.65,1.77,9.11,-0.10,-0.02,0.04,31.94,0.62,-17.69,0.04,0.11,-0.17,-2.70,1.66,9.28,0.97,0.11,0.12,-0.19,12
726856,-2.54,1.73,9.23,-0.13,0.14,-0.05,31.38,-0.88,-17.69,0.16,0.11,-0.06,-2.70,1.62,9.29,0.97,0.11,0.12,-0.19,12
726896,-2.46,1.69,9.31,-0.12,0.27,-0.15,32.06,0.00,-16.12,0.34,0.14,0.03,-2.80,1.55,9.27,0.97,0.11,0.12,-0.20,12
726936,-2.73,1.50,9.42,0.04,0.16,-0.10,32.12,-0.25,-18.38,0.15,-0.02,0.17,-2.88,1.52,9.25,0.97,0.11,0.13,-0.20,12
726980,-2.92,1.58,9.07,-0.06,0.12,-0.09,33.25,-0.44,-17.06,0.02,0.07,-0.16,-2.94,1.51,9.23,0.97,0.11,0.13,-0.20,12
727016,-3.04,1.58,8.95,-0.13,0.11,-0.10,32.12,1.44,-16.94,-0.04,0.11,-0.27,-2.99,1.47,9.23,0.96,0.11,0.14,-0.20,12
727057,-3.15,1.54,8.95,-0.17,0.06,-0.03,33.81,0.62,-14.50,-0.12,0.15,-0.26,-3.03,1.39,9.22,0.96,0.10,0.14,-0.20,12
727097,-3.46,1.35,9.42,-0.16,-0.05,0.07,33.31,1.38,-17.88,-0.43,0.00,0.19,-3.03,1.34,9.23,0.96,0.10,0.14,-0.20,12
727140,-2.92,1.31,9.19,-0.23,-0.13,0.04,31.12,0.88,-17.44,0.07,0.04,-0.06,-2.99,1.27,9.25,0.97,0.10,0.14,-0.20,12
727177,-2.84,1.27,9.38,-0.14,-0.07,0.01,32.44,1.81,-18.00,0.10,0.07,0.11,-2.95,1.20,9.27,0.97,0.09,0.14,-0.20,12
727217,-2.88,1.16,9.45,-0.11,-0.02,0.01,33.12,0.94,-16.06,0.05,-0.01,0.18,-2.93,1.16,9.28,0.97,0.09,0.14,-0.20,12
727257,-2.88,1.12,9.30,-0.09,-0.02,0.02,32.94,1.56,-17.62,0.04,-0.01,0.02,-2.92,1.12,9.29,0.97,0.09,0.14,-0.20,12
727297,-3.04,1.04,9.42,-0.06,-0.02,0.05,33.00,1.31,-17.19,-0.12,-0.07,0.12,-2.91,1.11,9.30,0.97,0.09,0.14,-0.20,12
727337,-2.96,1.16,9.23,-0.10,-0.03,0.06,32.56,1.50,-17.25,-0.06,0.07,-0.08,-2.90,1.09,9.30,0.97,0.08,0.14,-0.20,12
727377,-2.96,1.08,9.34,-0.06,-0.04,0.10,32.12,1.69,-14.81,-0.07,0.01,0.03,-2.89,1.07,9.31,0.97,0.08,0.13,-0.19,12
727417,-2.88,1.04,9.38,-0.06,-0.02,0.08,31.62,2.06,-18.12,-0.02,-0.02,0.06,-2.87,1.06,9.32,0.97,0.08,0.13,-0.19,12
727458,-2.69,1.04,9.41,-0.02,0.04,0.03,30.69,0.81,-17.44,0.18,-0.01,0.10,-2.88,1.05,9.32,0.97,0.08,0.13,-0.19,12
727498,-2.77,1.04,9.41,-0.01,0.08,0.00,30.69,0.81,-17.44,0.13,-0.01,0.11,-2.90,1.05,9.31,0.97,0.08,0.14,-0.19,12
727538,-2.84,1.08,9.27,-0.04,0.07,-0.03,33.69,1.88,-16.06,0.04,-0.02,-0.10,-2.88,1.09,9.37,0.97,0.08,0.14,-0.19,12
727578,-2.92,0.96,9.41,0.01,0.10,-0.03,32.50,2.12,-18.00,-0.01,-0.12,0.06,-2.91,1.09,9.36,0.97,0.08,0.14,-0.19,12
727618,-2.96,0.93,9.49,0.07,0.11,-0.01,34.00,1.94,-17.12,-0.00,-0.17,0.14,-2.95,1.09,9.35,0.97,0.08,0.14,-0.19,12
727658,-3.11,1.04,9.15,0.03,0.08,0.01,34.00,1.94,-17.12,-0.12,-0.05,-0.20,-2.99,1.09,9.34,0.97,0.08,0.14,-0.19,12
727698,-3.19,1.08,9.11,-0.05,0.04,0.02,33.44,3.25,-16.12,-0.16,0.00,-0.21,-3.02,1.08,9.33,0.97,0.08,0.14,-0.19,12
727738,-3.11,1.12,9.03,-0.15,-0.02,-0.04,33.94,2.25,-17.88,-0.07,0.08,-0.27,-3.04,1.04,9.30,0.97,0.08,0.14,-0.19,12
727778,-3.15,1.00,9.19,-0.07,-0.06,0.02,32.06,1.81,-17.75,-0.11,0.00,-0.10,-3.04,1.00,9.29,0.97,0.08,0.14,-0.19,12
727818,-3.04,0.96,9.19,-0.13,-0.09,0.03,32.19,1.75,-16.94,-0.01,-0.00,-0.10,-3.02,0.97,9.29,0.97,0.08,0.14,-0.19,12
727858,-2.96,1.00,9.31,-0.18,-0.05,0.04,34.25,1.31,-15.25,0.05,0.09,0.01,-3.01,0.91,9.30,0.97,0.07,0.14,-0.19,12
727898,-2.84,1.00,9.34,-0.24,-0.06,-0.03,33.19,2.44,-16.88,0.14,0.16,0.03,-2.98,0.84,9.31,0.97,0.07,0.14,-0.19,12
727938,-2.77,0.81,9.34,-0.30,-0.03,-0.09,31.12,2.38,-18.62,0.21,0.08,0.03,-2.98,0.73,9.31,0.97,0.07,0.14,-0.19,12
727978,-2.92,0.50,9.61,-0.18,0.02,-0.05,31.94,3.19,-17.06,0.05,-0.12,0.29,-2.98,0.62,9.32,0.97,0.06,0.14,-0.19,12
728018,-2.84,0.54,9.50,-0.07,0.07,-0.01,34.00,3.00,-14.94,0.15,-0.03,0.18,-2.99,0.57,9.32,0.97,0.06,0.14,-0.19,12
728058,-2.80,0.54,9.45,-0.07,0.19,-0.02,33.25,3.62,-17.31,0.23,0.02,0.14,-3.03,0.52,9.31,0.97,0.06,0.15,-0.19,12
728098,-2.84,0.39,9.61,-0.03,0.29,-0.09,33.69,3.12,-17.19,0.28,-0.13,0.33,-3.12,0.52,9.28,0.97,0.06,0.15,-0.19,12
728138,-3.15,0.39,9.53,0.03,0.28,-0.11,33.44,3.25,-16.12,0.09,-0.10,0.29,-3.24,0.49,9.24,0.97,0.06,0.16,-0.19,12
728178,-3.54,0.39,9.38,0.13,0.14,-0.06,35.56,3.38,-13.69,-0.21,-0.14,0.17,-3.32,0.53,9.21,0.97,0.06,0.16,-0.19,12
728218,-3.69,0.43,9.07,-0.01,-0.03,-0.04,34.88,2.81,-15.25,-0.35,-0.11,-0.13,-3.34,0.54,9.20,0.97,0.06,0.16,-0.19,12
728258,-3.46,0.47,9.15,0.03,0.14,0.07,35.56,2.56,-15.81,-0.10,-0.08,-0.05,-3.36,0.55,9.20,0.97,0.06,0.16,-0.19,12
728298,-3.38,0.73,9.07,-0.10,-0.03,0.14,35.56,2.94,-16.25,0.00,0.17,-0.11,-3.38,0.56,9.19,0.97,0.06,0.17,-0.19,12
728338,-2.92,0.66,9.69,-0.25,-0.08,-0.06,33.25,2.62,-13.94,0.44,0.16,0.48,-3.36,0.50,9.20,0.97,0.06,0.16,-0.19,12
728382,-2.61,0.47,9.80,-0.64,0.38,-0.35,33.06,3.81,-15.88,0.79,0.13,0.61,-3.40,0.34,9.19,0.97,0.05,0.17,-0.19,12
728418,-2.84,0.35,9.57,-1.06,0.75,-0.38,35.81,4.69,-15.94,0.80,0.40,0.46,-3.64,-0.05,9.11,0.96,0.03,0.18,-0.19,12
728458,-3.42,-1.11,10.41,0.45,0.72,-0.10,37.12,5.00,-14.00,0.45,-0.89,1.41,-3.87,-0.22,9.01,0.96,0.03,0.20,-0.20,12
728499,-3.38,0.01,9.04,0.53,1.07,-0.23,35.88,5.06,-13.06,0.81,0.04,0.17,-4.19,-0.03,8.87,0.95,0.04,0.21,-0.20,12
728539,-3.88,0.58,7.89,0.31,0.68,-0.26,39.00,5.12,-13.00,0.65,0.50,-0.82,-4.53,0.09,8.70,0.95,0.06,0.23,-0.21,12
728579,-5.03,0.62,7.12,-0.06,-0.02,-0.16,39.44,5.12,-13.31,-0.39,0.53,-1.53,-4.63,0.09,8.65,0.95,0.06,0.24,-0.21,12
728619,-5.72,0.28,8.35,-0.12,-0.05,-0.03,38.00,5.31,-14.25,-1.12,0.24,-0.32,-4.60,0.04,8.66,0.95,0.06,0.24,-0.21,12
728659,-5.64,0.01,8.31,-0.17,-0.11,0.17,40.25,5.38,-11.44,-1.05,-0.01,-0.36,-4.59,0.02,8.67,0.95,0.05,0.24,-0.21,12
728699,-4.84,0.20,8.31,-0.38,-0.58,0.08,39.75,5.31,-11.50,-0.38,0.25,-0.43,-4.46,-0.05,8.74,0.95,0.05,0.23,-0.21,12
728739,-4.30,0.20,8.46,-0.54,-0.53,-0.02,37.50,5.31,-14.62,-0.06,0.41,-0.38,-4.24,-0.21,8.84,0.95,0.04,0.22,-0.21,12
728779,-3.92,-0.49,9.07,-0.43,-0.37,-0.03,37.25,6.44,-14.06,0.18,-0.09,0.18,-4.10,-0.41,8.90,0.95,0.02,0.21,-0.21,12
728819,-4.18,-0.61,9.15,-0.25,-0.64,-0.01,39.19,6.88,-13.44,-0.26,-0.09,0.18,-3.92,-0.52,8.97,0.96,0.02,0.21,-0.20,12
728859,-3.92,-0.61,9.27,-0.17,-0.82,-0.05,36.12,6.44,-15.25,-0.27,-0.00,0.19,-3.65,-0.60,9.08,0.96,0.01,0.19,-0.20,12
728906,-3.15,-1.03,10.11,-0.18,-0.28,0.05,34.38,8.06,-16.69,0.29,-0.35,0.95,-3.44,-0.68,9.16,0.96,0.00,0.18,-0.20,12
728939,-3.00,-1.14,10.10,-0.02,-0.12,0.06,33.19,6.25,-17.06,0.37,-0.45,0.92,-3.37,-0.69,9.19,0.96,0.00,0.18,-0.20,12
728979,-2.84,-1.22,10.38,0.00,0.32,0.12,35.75,7.25,-15.38,0.55,-0.54,1.20,-3.40,-0.68,9.17,0.96,0.00,0.18,-0.20,12
729019,-2.54,-0.99,10.11,0.08,0.60,-0.03,34.44,6.81,-15.50,1.04,-0.34,1.00,-3.58,-0.65,9.11,0.96,0.00,0.19,-0.20,12
729059,-3.54,-0.68,9.34,-0.99,0.93,0.48,36.25,6.69,-14.88,0.33,0.08,0.35,-3.87,-0.77,8.99,0.96,-0.00,0.21,-0.19,12
729099,-4.15,-0.03,8.46,-0.82,0.74,0.43,35.25,8.62,-14.44,0.05,0.99,-0.35,-4.20,-1.02,8.81,0.96,-0.01,0.23,-0.18,12
729139,-5.14,-0.76,8.84,-0.15,0.16,0.28,37.88,8.44,-11.88,-0.80,0.34,0.10,-4.34,-1.09,8.74,0.96,-0.02,0.23,-0.17,12
729179,-4.76,-1.33,9.23,0.07,0.15,0.33,36.94,8.38,-12.00,-0.38,-0.29,0.50,-4.38,-1.05,8.73,0.96,-0.01,0.24,-0.17,12
729219,-4.34,-1.07,9.07,0.11,0.60,0.21,37.12,7.88,-13.38,0.19,-0.08,0.41,-4.53,-0.98,8.66,0.96,-0.01,0.24,-0.16,12
729259,-4.11,-0.95,8.65,0.21,0.61,0.10,38.19,7.56,-12.19,0.65,-0.06,0.10,-4.76,-0.89,8.55,0.95,-0.01,0.26,-0.16,12
729304,-4.30,-1.26,8.65,0.38,0.66,0.11,38.31,7.25,-11.06,0.67,-0.49,0.20,-4.97,-0.77,8.45,0.95,0.00,0.27,-0.16,12
729339,-4.45,-0.76,7.96,0.36,0.70,-0.07,40.25,6.19,-9.31,0.76,-0.13,-0.36,-5.21,-0.62,8.32,0.95,0.01,0.28,-0.16,12
729379,-4.80,-0.14,7.54,0.21,0.81,-0.15,41.12,6.56,-9.94,0.65,0.43,-0.64,-5.45,-0.57,8.18,0.94,0.02,0.29,-0.17,12
729419,-5.56,-0.18,7.43,-0.28,1.17,0.10,41.94,6.31,-9.81,0.19,0.37,-0.54,-5.75,-0.55,7.97,0.94,0.02,0.31,-0.17,12
729459,-5.49,-0.72,7.93,-0.36,2.01,0.55,42.38,7.12,-7.62,0.75,-0.09,0.34,-6.23,-0.62,7.59,0.93,0.02,0.34,-0.16,12
729503,-5.87,-0.99,8.04,0.17,2.23,0.51,45.75,7.81,-3.94,1.00,-0.50,1.02,-6.88,-0.48,7.02,0.91,0.03,0.38,-0.15,12
729540,-7.14,-0.61,7.00,0.02,1.70,0.43,48.50,5.94,-2.06,0.30,-0.32,0.57,-7.44,-0.29,6.43,0.90,0.05,0.42,-0.14,12
729581,-8.16,-0.22,6.20,0.05,0.64,0.22,49.56,5.62,-0.88,-0.43,-0.04,0.13,-7.73,-0.19,6.07,0.89,0.05,0.44,-0.13,12
729620,-8.24,-0.03,5.78,0.07,-0.15,-0.03,49.44,5.44,-1.56,-0.46,0.12,-0.25,-7.78,-0.15,6.02,0.89,0.05,0.44,-0.13,12
729660,-8.02,0.08,5.62,0.08,-0.52,-0.17,48.75,5.31,-0.19,-0.33,0.25,-0.52,-7.69,-0.17,6.14,0.89,0.05,0.43,-0.13,12
729700,-7.67,-0.03,6.05,0.10,-0.35,-0.15,49.12,6.88,-1.69,-0.11,0.19,-0.23,-7.56,-0.22,6.28,0.89,0.05,0.42,-0.14,12
729741,-7.52,-0.11,6.54,0.35,-0.07,-0.17,48.38,5.38,-2.44,-0.01,0.10,0.19,-7.51,-0.21,6.35,0.89,0.05,0.42,-0.14,12
729781,-7.48,-0.14,6.51,0.51,0.03,-0.16,48.38,5.38,-2.44,0.02,-0.00,0.16,-7.50,-0.14,6.35,0.89,0.06,0.42,-0.15,12
729821,-7.32,0.16,6.20,0.43,-0.01,-0.21,50.62,5.69,0.00,0.18,0.23,-0.16,-7.51,-0.07,6.36,0.89,0.07,0.42,-0.15,12
729861,-7.32,0.16,6.24,0.13,-0.01,-0.17,48.88,6.31,-2.75,0.18,0.21,-0.13,-7.50,-0.05,6.37,0.89,0.07,0.42,-0.16,12
729903,-7.82,-0.22,6.85,0.19,0.01,-0.10,50.12,5.81,-3.31,-0.32,-0.17,0.48,-7.50,-0.05,6.37,0.89,0.07,0.42,-0.16,12
729947,-7.82,0.05,6.66,0.19,0.11,-0.09,50.75,5.56,-2.12,-0.31,0.08,0.31,-7.52,-0.03,6.35,0.89,0.08,0.42,-0.17,12
729981,-7.75,0.01,6.58,0.17,0.11,-0.03,50.19,6.62,-0.81,-0.20,0.01,0.27,-7.55,0.00,6.31,0.89,0.08,0.42,-0.17,12
730021,-7.60,0.05,6.47,0.10,0.08,-0.03,50.00,6.00,-1.50,-0.03,0.02,0.17,-7.56,0.02,6.30,0.89,0.08,0.42,-0.17,12
730063,-7.29,0.05,6.28,0.16,0.08,-0.06,50.19,6.12,-3.00,0.30,0.00,0.00,-7.59,0.05,6.27,0.89,0.08,0.42,-0.17,12
730101,-7.17,0.24,6.05,0.07,0.17,-0.13,51.12,5.81,-2.12,0.45,0.19,-0.19,-7.62,0.05,6.23,0.89,0.09,0.42,-0.18,12
730141,-7.36,0.28,5.97,0.00,0.17,-0.15,51.12,6.31,0.06,0.29,0.27,-0.21,-7.66,0.01,6.18,0.88,0.09,0.43,-0.18,12
730181,-7.63,0.20,5.86,-0.01,0.01,-0.13,50.00,6.31,-1.50,0.05,0.23,-0.30,-7.68,-0.03,6.16,0.88,0.08,0.43,-0.18,12
730223,-7.71,0.12,5.97,-0.02,-0.01,-0.13,49.88,6.69,-2.62,-0.04,0.21,-0.20,-7.67,-0.09,6.16,0.88,0.08,0.43,-0.18,12
730261,-7.90,0.08,6.05,-0.02,0.06,-0.09,52.31,6.19,-0.88,-0.22,0.21,-0.11,-7.68,-0.12,6.16,0.88,0.08,0.43,-0.18,12
730301,-7.94,-0.07,6.05,-0.03,-0.05,-0.08,50.62,6.00,-0.31,-0.25,0.07,-0.10,-7.69,-0.14,6.15,0.88,0.08,0.43,-0.19,12
730341,-7.74,0.05,6.01,-0.09,-0.13,-0.09,53.38,6.81,-0.44,-0.09,0.24,-0.17,-7.66,-0.20,6.18,0.88,0.08,0.43,-0.19,12
730384,-7.52,-0.22,6.28,-0.05,-0.07,-0.12,51.38,6.75,-1.38,0.11,0.01,0.06,-7.62,-0.23,6.22,0.88,0.08,0.42,-0.19,12
730421,-7.67,-0.22,6.24,-0.07,0.00,-0.07,51.31,7.62,-2.50,-0.05,0.04,0.01,-7.62,-0.27,6.23,0.88,0.07,0.42,-0.19,12
730461,-7.71,-0.22,6.24,-0.08,-0.03,-0.03,52.00,7.38,-1.00,-0.09,0.07,0.01,-7.62,-0.30,6.23,0.88,0.07,0.42,-0.19,12
730501,-7.75,-0.38,6.47,-0.03,0.07,-0.03,51.56,6.81,-3.19,-0.13,-0.06,0.23,-7.62,-0.31,6.23,0.88,0.07,0.42,-0.19,12
730544,-7.79,-0.26,6.32,-0.02,0.16,-0.05,51.69,6.19,-1.69,-0.14,0.07,0.13,-7.65,-0.33,6.19,0.88,0.07,0.43,-0.19,12
730582,-7.82,-0.38,6.39,0.02,0.04,-0.01,51.12,7.31,-1.06,-0.15,-0.04,0.23,-7.67,-0.34,6.16,0.88,0.07,0.43,-0.19,12
730622,-7.79,-0.64,6.51,0.21,-0.05,0.09,50.12,6.94,-1.19,-0.11,-0.36,0.34,-7.67,-0.29,6.16,0.88,0.07,0.43,-0.19,12
730662,-7.40,-0.18,6.24,0.21,0.16,0.04,52.25,7.44,-2.06,0.28,0.04,0.07,-7.68,-0.22,6.16,0.88,0.08,0.43,-0.19,12
730705,-8.24,-0.45,6.74,0.42,0.26,0.20,50.75,6.44,-2.50,-0.51,-0.34,0.64,-7.73,-0.12,6.09,0.88,0.09,0.43,-0.19,12
730742,-8.12,-0.07,6.43,0.48,0.17,0.28,52.19,5.88,-1.25,-0.34,-0.16,0.40,-7.79,0.09,6.03,0.88,0.10,0.43,-0.19,12
730782,-7.74,0.16,6.20,0.46,0.22,0.22,51.25,5.81,-1.31,0.09,-0.11,0.23,-7.84,0.27,5.97,0.88,0.11,0.43,-0.19,12
730822,-7.86,0.12,6.09,0.51,0.14,0.21,52.12,5.31,-1.19,0.02,-0.34,0.19,-7.88,0.46,5.90,0.87,0.12,0.43,-0.19,12
730862,-7.44,0.47,5.59,0.35,-0.01,0.08,52.88,5.12,-2.19,0.46,-0.13,-0.29,-7.90,0.60,5.88,0.87,0.13,0.43,-0.19,12
730902,-7.44,0.81,5.32,0.19,-0.15,-0.02,52.00,5.69,-2.31,0.43,0.12,-0.57,-7.88,0.69,5.89,0.87,0.13,0.43,-0.19,12
730942,-7.40,1.12,5.16,-0.35,-0.30,-0.53,53.56,4.50,-0.31,0.42,0.48,-0.80,-7.82,0.64,5.96,0.87,0.13,0.43,-0.20,12
730982,-8.02,1.12,5.93,-0.27,0.02,-0.72,51.31,5.06,-3.12,-0.22,0.80,-0.09,-7.80,0.31,6.02,0.87,0.12,0.43,-0.21,12
731022,-8.29,-0.30,7.16,0.23,-0.01,-0.30,53.00,5.75,-1.88,-0.49,-0.47,1.13,-7.80,0.17,6.02,0.87,0.11,0.43,-0.21,12
731062,-7.67,0.31,6.05,0.06,0.27,-0.18,53.00,5.75,-1.88,0.16,0.16,0.06,-7.84,0.15,5.98,0.87,0.12,0.43,-0.22,12
731102,-7.94,0.28,5.78,-0.05,-0.08,-0.14,51.12,6.69,-0.69,-0.07,0.18,-0.18,-7.87,0.10,5.95,0.87,0.12,0.43,-0.22,12
731142,-8.44,0.47,5.36,-0.14,-0.07,-0.08,53.25,5.19,-2.12,-0.59,0.44,-0.61,-7.85,0.03,5.97,0.87,0.11,0.43,-0.22,12
731182,-8.44,0.20,5.62,-0.02,-0.20,-0.05,52.75,6.81,-1.62,-0.62,0.18,-0.38,-7.82,0.02,6.01,0.87,0.11,0.43,-0.22,12
731222,-7.82,0.28,5.74,-0.21,-0.22,-0.12,53.19,6.06,-3.31,-0.04,0.32,-0.33,-7.78,-0.04,6.07,0.87,0.11,0.43,-0.22,12
731262,-7.86,0.12,5.89,-0.44,-0.23,-0.17,52.31,6.50,-1.25,-0.13,0.28,-0.23,-7.73,-0.16,6.12,0.87,0.10,0.43,-0.22,12
732931,-6.91,-0.68,7.08,-0.03,-0.02,0.00,45.69,7.50,-3.94,-0.12,0.07,-0.09,-6.78,-0.75,7.17,0.91,0.04,0.37,-0.20,12
732971,-6.83,-0.84,7.28,0.06,-0.03,0.02,48.06,8.31,-4.06,-0.06,-0.10,0.09,-6.77,-0.73,7.18,0.91,0.04,0.37,-0.20,12
733012,-6.64,-0.64,7.16,0.01,0.04,-0.02,47.81,7.62,-2.25,0.13,0.08,-0.02,-6.77,-0.73,7.18,0.91,0.04,0.37,-0.20,12
733051,-6.75,-0.72,7.31,0.02,0.15,0.02,49.06,7.75,-2.81,0.05,0.01,0.16,-6.80,-0.73,7.15,0.91,0.04,0.37,-0.20,12
733091,-6.75,-0.76,7.20,0.03,0.11,-0.01,49.50,9.31,-3.94,0.09,-0.04,0.09,-6.84,-0.72,7.11,0.90,0.04,0.37,-0.20,12
733131,-6.91,-0.64,7.00,-0.02,0.08,-0.04,47.62,8.31,-4.12,-0.04,0.08,-0.08,-6.87,-0.73,7.09,0.90,0.04,0.37,-0.20,12
733173,-7.06,-0.68,7.00,0.04,-0.01,0.02,47.44,7.56,-1.94,-0.19,0.04,-0.08,-6.87,-0.72,7.09,0.90,0.04,0.37,-0.20,12
733210,-6.83,-0.64,7.04,-0.02,-0.04,0.01,49.38,9.50,-2.19,0.03,0.07,-0.05,-6.86,-0.72,7.09,0.90,0.04,0.37,-0.20,12
733251,-6.75,-0.72,7.12,-0.00,0.01,-0.00,49.06,9.00,-3.62,0.11,0.00,0.03,-6.86,-0.72,7.09,0.90,0.04,0.37,-0.20,12
733291,-6.83,-0.76,7.24,0.04,0.05,0.01,48.44,8.06,-4.00,0.05,-0.05,0.15,-6.88,-0.70,7.09,0.90,0.04,0.37,-0.20,12
733333,-6.79,-0.64,7.04,-0.02,0.08,-0.02,48.44,9.12,-2.62,0.11,0.07,-0.02,-6.90,-0.71,7.06,0.90,0.04,0.38,-0.20,12
733372,-6.79,-0.72,7.16,-0.03,0.16,-0.01,49.88,7.25,-3.06,0.15,0.00,0.13,-6.94,-0.72,7.02,0.90,0.04,0.38,-0.20,12
733412,-6.87,-0.80,7.16,0.06,0.18,-0.01,48.19,8.00,-3.31,0.12,-0.09,0.19,-6.99,-0.71,6.97,0.90,0.04,0.38,-0.20,12
733452,-6.91,-0.68,6.96,0.01,0.21,-0.03,49.00,8.06,-3.25,0.14,0.03,0.05,-7.05,-0.71,6.91,0.90,0.05,0.38,-0.20,12
733492,-7.09,-0.61,6.77,0.00,0.13,-0.03,48.81,8.00,-1.75,-0.01,0.12,-0.09,-7.09,-0.73,6.87,0.90,0.05,0.39,-0.20,12
733532,-7.21,-0.61,6.66,-0.09,0.02,-0.04,49.44,8.62,-1.00,-0.11,0.14,-0.19,-7.10,-0.75,6.85,0.90,0.05,0.39,-0.20,12
733572,-7.29,-0.80,6.89,-0.04,-0.02,0.01,49.06,8.06,-2.81,-0.20,-0.02,0.04,-7.09,-0.78,6.85,0.90,0.04,0.39,-0.20,12
733612,-7.13,-0.88,7.04,0.02,-0.03,0.01,49.50,7.50,-2.75,-0.05,-0.12,0.18,-7.09,-0.76,6.87,0.90,0.04,0.39,-0.20,12
733652,-6.94,-0.72,6.89,0.02,0.03,-0.00,49.75,8.69,-2.06,0.15,0.04,0.03,-7.09,-0.76,6.86,0.90,0.04,0.39,-0.20,12
733692,-7.05,-0.80,7.00,0.09,0.08,0.04,48.06,8.19,-1.19,0.05,-0.07,0.16,-7.11,-0.73,6.84,0.90,0.05,0.39,-0.20,12
733732,-7.02,-0.68,6.85,0.05,0.11,0.01,49.31,6.62,-3.12,0.12,0.03,0.03,-7.14,-0.71,6.82,0.90,0.05,0.39,-0.20,12
733772,-7.02,-0.64,6.77,0.01,0.14,-0.02,49.50,8.12,-3.19,0.15,0.07,-0.01,-7.17,-0.71,6.78,0.90,0.05,0.39,-0.20,12
733812,-7.18,-0.68,6.81,-0.04,0.14,-0.05,50.12,7.81,-2.00,0.04,0.04,0.08,-7.21,-0.73,6.73,0.89,0.05,0.40,-0.20,12
733852,-7.40,-0.76,6.74,0.03,0.13,-0.02,51.25,8.44,-1.12,-0.16,-0.02,0.04,-7.24,-0.73,6.70,0.89,0.05,0.40,-0.20,12
733892,-7.48,-0.72,6.62,0.04,0.06,0.01,49.69,9.00,-2.81,-0.21,0.01,-0.06,-7.27,-0.73,6.68,0.89,0.05,0.40,-0.20,12
733932,-7.36,-0.61,6.47,-0.04,-0.04,-0.02,50.00,6.94,-1.94,-0.10,0.13,-0.21,-7.27,-0.73,6.68,0.89,0.05,0.40,-0.20,12
733972,-7.36,-0.68,6.66,0.01,-0.04,0.02,49.69,8.69,-2.44,-0.11,0.05,-0.04,-7.25,-0.73,6.70,0.89,0.05,0.40,-0.20,12
734012,-7.14,-0.68,6.70,-0.02,0.01,-0.01,51.00,9.00,-0.44,0.12,0.04,0.00,-7.25,-0.73,6.70,0.89,0.05,0.40,-0.20,12
734052,-7.25,-0.72,6.70,-0.01,0.03,-0.01,50.50,7.88,-2.62,0.01,0.02,0.01,-7.26,-0.73,6.69,0.89,0.05,0.40,-0.20,12
734092,-7.36,-0.72,6.74,0.01,-0.01,0.02,50.31,8.69,-1.62,-0.11,0.02,0.05,-7.26,-0.73,6.69,0.89,0.05,0.40,-0.20,12
734132,-7.29,-0.72,6.70,-0.01,-0.02,-0.00,48.69,8.00,-2.50,-0.04,0.01,0.00,-7.25,-0.73,6.70,0.89,0.05,0.40,-0.20,12
734172,-7.25,-0.76,6.74,-0.02,0.02,-0.02,48.75,7.69,-1.75,0.00,-0.02,0.04,-7.25,-0.74,6.70,0.89,0.05,0.40,-0.20,12
734212,-7.32,-0.80,6.77,0.03,-0.00,0.02,49.38,8.62,-1.75,-0.07,-0.08,0.08,-7.25,-0.72,6.70,0.89,0.05,0.40,-0.20,12
734252,-7.18,-0.64,6.58,-0.03,-0.00,-0.02,49.31,8.00,-1.38,0.11,0.06,-0.09,-7.28,-0.70,6.67,0.89,0.05,0.40,-0.20,12
734293,-7.32,-0.68,6.66,0.01,0.00,0.00,51.94,8.88,-2.50,-0.04,0.02,-0.01,-7.28,-0.70,6.67,0.89,0.05,0.40,-0.20,12
734333,-7.18,-0.64,6.62,-0.01,-0.00,-0.02,50.38,8.38,-0.88,0.11,0.07,-0.05,-7.28,-0.71,6.67,0.89,0.05,0.40,-0.20,12
734373,-7.21,-0.68,6.62,-0.04,0.03,-0.03,50.12,7.25,-1.56,0.07,0.04,-0.04,-7.28,-0.72,6.66,0.89,0.05,0.40,-0.20,12
734413,-7.44,-0.88,6.81,0.01,-0.01,0.03,48.62,7.38,-2.50,-0.17,-0.16,0.15,-7.27,-0.72,6.66,0.89,0.05,0.40,-0.20,12
734453,-7.32,-0.80,6.81,0.02,-0.03,0.00,49.31,8.00,-1.38,-0.04,-0.09,0.13,-7.28,-0.71,6.68,0.89,0.05,0.40,-0.20,12
734493,-7.36,-0.80,6.81,0.03,0.01,0.02,48.62,7.62,-0.31,-0.08,-0.09,0.12,-7.28,-0.71,6.69,0.89,0.05,0.40,-0.20,12
734533,-7.25,-0.72,6.70,0.03,-0.02,0.03,49.06,7.19,-2.44,0.03,-0.02,0.00,-7.28,-0.70,6.70,0.89,0.05,0.40,-0.20,12
734573,-7.10,-0.57,6.54,-0.03,0.01,-0.03,50.19,8.69,-2.38,0.18,0.14,-0.16,-7.27,-0.70,6.70,0.89,0.05,0.40,-0.20,12
734614,-7.25,-0.68,6.66,-0.02,-0.00,-0.01,49.19,8.00,-2.12,0.02,0.03,-0.03,-7.27,-0.71,6.69,0.89,0.05,0.40,-0.20,12
734653,-7.18,-0.68,6.66,-0.03,-0.01,-0.00,50.88,7.75,-0.06,0.09,0.03,-0.04,-7.26,-0.71,6.70,0.89,0.05,0.40,-0.20,12
734693,-7.21,-0.68,6.66,-0.02,0.01,-0.02,48.75,7.69,-1.75,0.04,0.04,-0.02,-7.25,-0.73,6.68,0.89,0.05,0.40,-0.20,12
734733,-7.29,-0.80,6.77,-0.01,-0.00,-0.00,50.62,8.12,-1.94,-0.04,-0.07,0.09,-7.25,-0.73,6.69,0.89,0.05,0.40,-0.20,12
734774,-7.25,-0.76,6.74,-0.02,-0.00,-0.01,48.12,7.12,-2.88,-0.01,-0.02,0.05,-7.24,-0.73,6.69,0.89,0.05,0.40,-0.20,12
734813,-7.25,-0.72,6.66,-0.03,0.01,-0.02,50.44,9.00,-0.94,0.00,0.02,-0.02,-7.25,-0.74,6.68,0.89,0.05,0.40,-0.20,12
734853,-7.18,-0.64,6.58,-0.08,0.01,-0.04,48.69,8.00,-2.50,0.08,0.12,-0.10,-7.25,-0.77,6.68,0.89,0.05,0.40,-0.20,12
734893,-7.02,-0.61,6.47,-0.17,0.06,-0.11,49.88,8.94,-1.69,0.23,0.21,-0.19,-7.25,-0.82,6.66,0.89,0.04,0.40,-0.20,12
734933,-6.75,-0.34,6.09,-0.48,0.10,-0.37,49.69,8.06,-2.06,0.50,0.66,-0.53,-7.25,-1.00,6.62,0.89,0.04,0.40,-0.21,12
734973,-8.40,-1.14,6.20,-1.30,-0.27,-0.78,49.69,8.56,0.50,-1.20,0.30,-0.39,-7.20,-1.44,6.59,0.89,0.02,0.41,-0.21,12
735013,-8.62,-2.90,7.93,-0.28,-0.58,0.02,48.31,10.56,-1.62,-1.64,-1.31,1.16,-6.98,-1.59,6.77,0.89,0.00,0.40,-0.21,12
735053,-6.79,-1.56,6.51,-0.32,-0.75,-0.08,48.69,11.19,-2.69,-0.01,0.13,-0.44,-6.78,-1.70,6.95,0.90,-0.01,0.39,-0.21,12
735093,-6.68,-1.71,6.96,-0.38,-0.78,-0.20,46.81,9.69,-4.25,-0.11,0.13,-0.15,-6.56,-1.84,7.12,0.90,-0.02,0.38,-0.21,12
735133,-6.33,-2.18,7.58,-0.14,-0.53,-0.00,46.06,10.75,-4.44,0.05,-0.25,0.33,-6.38,-1.92,7.25,0.91,-0.03,0.36,-0.21,12
735173,-6.10,-2.18,7.66,-0.06,-0.29,0.01,45.31,11.62,-4.19,0.17,-0.23,0.32,-6.27,-1.95,7.34,0.91,-0.03,0.36,-0.21,12
735213,-6.02,-2.14,7.62,-0.13,-0.19,-0.06,46.19,11.06,-3.75,0.20,-0.13,0.24,-6.23,-2.01,7.38,0.91,-0.03,0.35,-0.21,12
735253,-6.02,-2.29,7.77,-0.05,0.04,-0.02,44.62,11.31,-5.38,0.20,-0.26,0.41,-6.22,-2.03,7.36,0.91,-0.04,0.35,-0.20,12
735293,-6.37,-2.10,7.42,-0.00,0.04,0.02,46.25,10.50,-2.94,-0.13,-0.07,0.07,-6.23,-2.03,7.35,0.91,-0.04,0.35,-0.20,12
735334,-6.37,-2.10,7.35,0.03,0.02,0.02,44.62,11.31,-5.38,-0.12,-0.07,0.00,-6.24,-2.03,7.34,0.91,-0.03,0.36,-0.20,12
735375,-6.21,-2.06,7.43,0.04,0.03,0.01,44.81,10.62,-3.88,0.04,-0.06,0.08,-6.26,-2.00,7.34,0.91,-0.03,0.36,-0.20,12
735415,-6.25,-2.02,7.35,-0.01,0.00,0.00,44.81,10.62,-3.88,0.01,-0.02,0.00,-6.27,-2.00,7.34,0.91,-0.03,0.36,-0.20,12
735454,-6.33,-2.02,7.34,0.04,0.01,0.01,47.19,10.81,-2.88,-0.05,-0.04,0.01,-6.27,-1.98,7.34,0.91,-0.03,0.36,-0.20,12
735495,-6.25,-1.98,7.35,-0.04,-0.03,-0.02,46.50,11.12,-4.81,0.00,0.02,0.00,-6.26,-2.00,7.34,0.91,-0.03,0.36,-0.20,12
735535,-6.29,-2.06,7.43,-0.01,-0.01,-0.02,45.62,11.06,-4.88,-0.04,-0.05,0.08,-6.26,-2.01,7.34,0.91,-0.03,0.36,-0.20,12
735575,-6.33,-2.02,7.32,-0.04,-0.08,-0.04,45.62,11.06,-4.88,-0.09,0.01,-0.05,-6.23,-2.03,7.36,0.91,-0.03,0.35,-0.21,12
735615,-6.33,-2.10,7.35,-0.03,-0.15,-0.05,46.25,11.06,-3.31,-0.14,-0.05,-0.04,-6.19,-2.05,7.39,0.91,-0.04,0.35,-0.21,12
735655,-6.29,-2.14,7.34,-0.01,-0.24,-0.04,45.12,12.50,-6.12,-0.17,-0.07,-0.10,-6.12,-2.07,7.45,0.91,-0.04,0.35,-0.21,12
735695,-6.21,-2.10,7.38,-0.05,-0.31,-0.05,44.62,11.31,-5.38,-0.19,-0.01,-0.13,-6.02,-2.09,7.52,0.92,-0.04,0.34,-0.21,12
735735,-6.10,-2.10,7.46,-0.09,-0.40,-0.10,44.19,10.94,-5.06,-0.20,0.03,-0.14,-5.91,-2.13,7.60,0.92,-0.04,0.34,-0.21,12
735775,-5.91,-2.41,7.92,0.06,-0.38,-0.02,45.00,12.12,-3.94,-0.14,-0.26,0.24,-5.77,-2.15,7.69,0.92,-0.05,0.33,-0.21,12
735814,-5.68,-2.25,7.92,0.15,-0.30,-0.00,43.56,11.88,-7.00,-0.01,-0.14,0.15,-5.67,-2.11,7.77,0.92,-0.04,0.32,-0.21,12
735855,-5.56,-2.06,7.81,0.05,-0.27,-0.05,43.94,11.62,-7.31,0.02,0.03,-0.04,-5.59,-2.09,7.84,0.92,-0.04,0.32,-0.21,12
735895,-5.53,-2.14,7.96,0.05,-0.20,-0.00,44.00,11.94,-6.94,-0.00,-0.05,0.07,-5.52,-2.09,7.89,0.93,-0.04,0.31,-0.21,12
735935,-5.45,-2.25,8.08,0.07,-0.07,0.04,42.75,11.19,-6.38,0.04,-0.19,0.16,-5.49,-2.06,7.92,0.93,-0.04,0.31,-0.21,12
735975,-5.45,-2.18,8.00,0.06,-0.02,0.03,44.81,12.00,-7.56,0.04,-0.14,0.07,-5.48,-2.03,7.93,0.93,-0.04,0.31,-0.21,12
736015,-5.49,-2.06,7.96,0.02,-0.02,0.00,44.69,10.81,-7.50,-0.00,-0.03,0.02,-5.48,-2.03,7.94,0.93,-0.04,0.31,-0.21,12
736055,-5.53,-2.06,7.96,-0.01,-0.03,-0.00,42.44,10.94,-7.81,-0.05,-0.03,0.01,-5.48,-2.03,7.95,0.93,-0.04,0.31,-0.21,12
736096,-5.49,-2.18,8.08,-0.01,-0.03,0.00,43.31,11.81,-5.56,-0.03,-0.14,0.12,-5.46,-2.04,7.95,0.93,-0.04,0.31,-0.21,12
736135,-5.49,-2.14,8.04,0.03,0.02,0.02,42.56,10.94,-7.12,-0.02,-0.11,0.08,-5.47,-2.02,7.96,0.93,-0.04,0.31,-0.21,12
736175,-5.49,-2.06,8.00,0.05,0.02,0.02,41.19,12.00,-8.00,-0.01,-0.05,0.05,-5.48,-2.01,7.95,0.93,-0.04,0.31,-0.21,12
736215,-5.53,-2.02,7.96,-0.01,-0.01,0.00,42.81,11.25,-8.19,-0.05,-0.02,0.01,-5.48,-2.01,7.95,0.93,-0.04,0.31,-0.21,12
736256,-5.45,-2.02,8.12,0.08,-0.00,0.03,43.44,11.94,-7.75,0.05,0.08,0.12,-5.50,-2.10,8.00,0.93,-0.04,0.31,-0.21,12
736295,-5.37,-1.95,8.15,0.12,0.08,0.00,44.44,12.25,-7.25,0.14,0.11,0.14,-5.52,-2.05,8.01,0.93,-0.04,0.31,-0.21,12
736335,-5.64,-1.95,7.92,0.12,0.06,-0.00,43.25,11.62,-8.50,-0.11,0.07,-0.08,-5.53,-2.02,8.01,0.93,-0.04,0.31,-0.21,12
736375,-5.75,-1.98,7.73,0.06,-0.09,0.01,42.94,11.56,-7.75,-0.24,0.01,-0.29,-5.52,-1.99,8.02,0.93,-0.03,0.31,-0.21,12
736417,-5.56,-2.10,8.08,0.19,-0.14,0.06,42.62,10.88,-6.69,-0.09,-0.16,0.02,-5.48,-1.94,8.06,0.93,-0.03,0.31,-0.21,12
736456,-5.30,-2.02,8.35,0.42,0.01,0.15,43.50,11.25,-6.56,0.17,-0.23,0.24,-5.47,-1.80,8.10,0.93,-0.03,0.30,-0.21,12
736496,-5.34,-1.71,8.27,0.48,0.16,0.13,42.38,10.62,-8.19,0.19,-0.11,0.17,-5.52,-1.60,8.10,0.93,-0.02,0.30,-0.21,12
736536,-5.37,-1.45,8.08,0.34,0.21,0.08,40.81,10.31,-9.06,0.22,0.01,-0.01,-5.59,-1.46,8.09,0.93,-0.01,0.30,-0.21,12
736578,-5.79,-1.26,7.70,0.15,0.11,0.03,41.62,10.81,-7.19,-0.16,0.12,-0.37,-5.63,-1.38,8.06,0.93,-0.00,0.31,-0.21,12
736616,-5.95,-1.30,7.73,-0.06,-0.04,-0.01,44.25,9.56,-6.44,-0.31,0.10,-0.33,-5.63,-1.40,8.06,0.93,-0.00,0.31,-0.21,12
736656,-5.83,-1.30,7.89,-0.07,-0.19,-0.04,44.19,9.88,-7.19,-0.25,0.12,-0.21,-5.59,-1.42,8.09,0.93,-0.00,0.31,-0.21,12
736696,-5.60,-1.33,8.04,-0.06,-0.21,-0.04,42.19,9.81,-8.50,-0.09,0.12,-0.10,-5.51,-1.45,8.14,0.93,-0.01,0.30,-0.21,12
736738,-5.49,-1.45,8.12,-0.09,-0.18,-0.02,43.25,10.44,-7.69,-0.04,0.04,-0.05,-5.45,-1.48,8.17,0.93,-0.01,0.30,-0.21,12
736776,-5.34,-1.49,8.27,-0.08,-0.13,-0.01,44.69,10.56,-7.12,0.07,0.03,0.07,-5.41,-1.52,8.20,0.93,-0.01,0.30,-0.21,12
736816,-5.30,-1.56,8.34,0.05,-0.04,-0.00,42.12,9.81,-8.88,0.09,-0.05,0.13,-5.38,-1.52,8.21,0.93,-0.01,0.29,-0.21,12
736856,-5.37,-1.52,8.23,0.04,0.01,-0.00,41.19,9.75,-9.00,0.02,-0.03,0.01,-5.39,-1.49,8.22,0.93,-0.01,0.29,-0.21,12
736896,-5.41,-1.52,8.23,0.23,0.01,0.07,43.00,8.94,-8.00,-0.02,-0.10,0.00,-5.39,-1.42,8.23,0.93,-0.01,0.29,-0.21,12
736936,-5.53,-1.45,8.27,0.55,0.01,0.17,41.81,9.44,-7.81,-0.11,-0.22,0.02,-5.41,-1.23,8.25,0.93,-0.00,0.29,-0.21,12
736976,-5.45,-1.11,8.12,0.44,-0.02,0.12,43.31,9.31,-9.06,-0.04,-0.07,-0.16,-5.41,-1.03,8.27,0.93,0.01,0.29,-0.21,12
737016,-5.45,-0.80,8.00,0.02,-0.06,0.00,41.44,8.88,-9.62,-0.06,0.19,-0.29,-5.39,-0.98,8.29,0.93,0.01,0.29,-0.21,12
737056,-5.37,-0.72,8.04,-0.21,-0.07,-0.07,43.12,9.88,-8.06,-0.00,0.34,-0.26,-5.37,-1.06,8.30,0.93,0.01,0.29,-0.21,12
737096,-5.41,-1.11,8.19,-0.28,-0.03,-0.11,42.50,8.62,-8.06,-0.07,0.06,-0.10,-5.34,-1.16,8.29,0.93,0.01,0.29,-0.21,12
737136,-5.34,-1.03,7.96,-0.76,-0.11,-0.28,42.38,9.25,-9.19,-0.03,0.39,-0.32,-5.30,-1.41,8.28,0.93,-0.00,0.29,-0.21,12
737176,-5.34,-1.49,8.35,-0.22,-0.12,-0.03,44.94,10.62,-8.56,-0.09,0.12,0.07,-5.25,-1.61,8.27,0.93,-0.02,0.29,-0.21,12
737216,-5.37,-1.95,8.69,0.02,-0.02,-0.03,42.75,11.31,-8.50,-0.14,-0.36,0.39,-5.23,-1.59,8.30,0.93,-0.02,0.29,-0.21,12
737256,-5.34,-1.75,8.42,0.13,0.02,0.01,42.69,10.44,-8.12,-0.09,-0.19,0.13,-5.24,-1.56,8.29,0.93,-0.02,0.29,-0.22,12
737296,-5.41,-1.68,8.43,0.55,0.03,0.19,42.19,11.00,-9.31,-0.14,-0.32,0.11,-5.27,-1.36,8.31,0.93,-0.01,0.29,-0.22,12
737336,-5.22,-1.22,8.12,0.25,0.03,0.08,41.94,9.56,-9.94,0.05,-0.01,-0.21,-5.27,-1.21,8.33,0.93,-0.00,0.28,-0.21,12
737376,-5.26,-1.03,8.15,-0.06,-0.03,-0.04,43.25,9.31,-9.44,0.02,0.18,-0.18,-5.27,-1.21,8.33,0.93,0.00,0.28,-0.21,12
737416,-5.30,-1.14,8.19,-0.16,-0.08,-0.08,42.94,9.25,-8.75,-0.05,0.13,-0.14,-5.25,-1.27,8.34,0.93,-0.00,0.28,-0.22,12
737457,-5.26,-1.26,8.35,-0.15,-0.08,-0.07,41.06,10.06,-10.12,-0.04,0.08,0.00,-5.22,-1.34,8.34,0.93,-0.01,0.28,-0.22,12
737497,-5.22,-1.37,8.39,-0.09,-0.05,-0.04,42.75,9.62,-9.88,-0.02,0.01,0.03,-5.20,-1.38,8.35,0.93,-0.01,0.28,-0.22,12
737538,-5.14,-1.37,8.38,-0.12,0.01,-0.03,39.50,9.69,-11.00,0.05,0.04,0.04,-5.20,-1.41,8.34,0.93,-0.01,0.28,-0.22,12
737577,-5.22,-1.41,8.27,-0.20,-0.01,-0.05,40.88,10.00,-8.38,-0.02,0.08,-0.06,-5.20,-1.49,8.33,0.93,-0.01,0.28,-0.22,12
737617,-5.22,-1.60,8.46,-0.04,-0.02,-0.01,41.81,9.88,-10.75,-0.03,-0.07,0.13,-5.19,-1.53,8.33,0.93,-0.02,0.28,-0.22,12
737657,-5.14,-1.56,8.34,-0.04,0.02,-0.03,43.75,10.31,-10.19,0.05,-0.02,0.02,-5.20,-1.55,8.33,0.93,-0.02,0.28,-0.22,12
737698,-5.18,-1.52,8.27,-0.08,0.03,-0.03,41.19,10.62,-9.75,0.02,0.05,-0.04,-5.20,-1.57,8.31,0.93,-0.02,0.28,-0.22,12
737737,-5.26,-1.68,8.43,0.15,0.03,0.05,42.50,9.81,-8.81,-0.05,-0.13,0.11,-5.21,-1.55,8.31,0.93,-0.02,0.28,-0.22,12
737777,-5.22,-1.45,8.15,-0.01,0.04,0.00,42.25,8.94,-9.88,0.00,0.08,-0.15,-5.22,-1.53,8.30,0.93,-0.02,0.28,-0.22,12
737817,-5.30,-1.45,8.19,-0.06,-0.04,-0.02,41.19,10.38,-9.44,-0.09,0.11,-0.11,-5.21,-1.55,8.30,0.93,-0.02,0.28,-0.22,12
737858,-5.22,-1.52,8.27,-0.12,-0.01,-0.03,41.56,9.50,-9.31,-0.02,0.08,-0.04,-5.20,-1.60,8.30,0.93,-0.02,0.28,-0.22,12
737898,-5.26,-1.60,8.27,-0.06,-0.03,-0.02,41.31,10.88,-9.00,-0.06,0.02,-0.04,-5.20,-1.62,8.30,0.93,-0.02,0.28,-0.22,12
737938,-5.22,-1.60,8.23,-0.06,-0.11,-0.02,42.94,10.19,-9.19,-0.05,0.05,-0.09,-5.16,-1.66,8.32,0.93,-0.02,0.28,-0.22,12
737978,-5.18,-1.64,8.30,-0.04,-0.04,0.03,42.19,11.00,-9.31,-0.04,0.02,-0.01,-5.14,-1.66,8.32,0.93,-0.02,0.28,-0.22,12
738018,-5.03,-1.64,8.46,-0.01,0.02,0.01,41.75,10.94,-9.38,0.12,0.02,0.14,-5.15,-1.66,8.32,0.93,-0.02,0.28,-0.22,12
738057,-5.18,-1.68,8.27,-0.02,0.03,-0.01,41.38,10.56,-8.31,-0.02,-0.01,-0.05,-5.16,-1.67,8.32,0.93,-0.02,0.28,-0.22,12
738098,-5.22,-1.68,8.27,-0.01,-0.01,0.00,41.69,11.56,-10.12,-0.06,-0.01,-0.04,-5.16,-1.67,8.31,0.93,-0.02,0.28,-0.22,12
738138,-5.11,-1.64,8.35,-0.02,0.01,-0.00,43.56,11.69,-9.50,0.10,-0.05,0.06,-5.20,-1.59,8.28,0.93,-0.03,0.28,-0.22,12
738178,-5.11,-1.68,8.30,0.00,0.04,-0.01,42.31,10.38,-8.19,0.10,-0.09,0.03,-5.20,-1.59,8.28,0.93,-0.02,0.28,-0.22,12
738217,-5.26,-1.68,8.23,0.00,0.00,-0.01,43.38,11.62,-7.69,-0.06,-0.07,-0.04,-5.20,-1.61,8.27,0.93,-0.02,0.28,-0.22,12
738258,-5.22,-1.68,8.23,-0.04,-0.04,-0.01,41.12,9.75,-9.38,-0.04,-0.05,-0.05,-5.18,-1.62,8.28,0.93,-0.02,0.28,-0.22,12
738298,-5.18,-1.64,8.27,-0.03,-0.03,-0.01,41.88,10.62,-8.25,-0.01,0.01,-0.01,-5.17,-1.65,8.28,0.93,-0.03,0.28,-0.22,12
738338,-5.14,-1.68,8.30,-0.02,-0.03,0.00,43.12,10.75,-8.44,0.02,-0.02,0.03,-5.16,-1.66,8.28,0.93,-0.03,0.28,-0.22,12
738378,-5.14,-1.71,8.31,-0.01,-0.03,0.01,43.44,11.62,-7.38,0.01,-0.04,0.03,-5.15,-1.67,8.28,0.93,-0.03,0.28,-0.21,12
738418,-5.07,-1.68,8.35,-0.02,-0.02,0.01,41.88,9.25,-9.94,0.08,0.00,0.05,-5.15,-1.68,8.30,0.93,-0.03,0.28,-0.21,12
738458,-5.11,-1.68,8.35,-0.02,0.02,0.02,43.00,10.19,-8.75,0.04,0.00,0.05,-5.14,-1.68,8.30,0.93,-0.03,0.28,-0.21,12
738499,-5.14,-1.71,8.31,-0.02,0.02,0.01,41.62,11.00,-10.06,0.02,-0.03,0.01,-5.16,-1.69,8.30,0.93,-0.03,0.28,-0.21,12
738539,-5.14,-1.71,8.31,0.01,-0.01,-0.00,42.69,11.62,-9.31,0.01,-0.02,0.01,-5.15,-1.70,8.30,0.93,-0.03,0.28,-0.21,12
738579,-5.14,-1.71,8.31,-0.01,-0.01,-0.01,42.69,11.31,-8.88,0.00,-0.01,0.01,-5.14,-1.70,8.30,0.93,-0.03,0.28,-0.21,12
738619,-5.14,-1.75,8.31,0.01,-0.00,0.01,40.12,10.31,-10.25,0.00,-0.05,0.01,-5.14,-1.70,8.30,0.93,-0.03,0.28,-0.21,12
738659,-5.14,-1.71,8.31,0.00,-0.00,-0.01,41.81,10.94,-8.94,-0.01,-0.00,0.00,-5.13,-1.71,8.30,0.93,-0.03,0.28,-0.21,12
738699,-5.22,-1.71,8.27,0.00,-0.03,-0.00,41.88,10.94,-8.62,-0.09,0.00,-0.04,-5.13,-1.72,8.30,0.93,-0.03,0.28,-0.21,12
738739,-5.14,-1.68,8.27,-0.01,-0.06,-0.01,42.12,10.44,-9.31,-0.02,0.04,-0.04,-5.12,-1.72,8.31,0.93,-0.03,0.28,-0.21,12
738779,-5.11,-1.71,8.31,-0.03,-0.05,-0.02,42.69,11.00,-8.88,0.00,0.01,-0.01,-5.11,-1.73,8.32,0.93,-0.03,0.28,-0.21,12
738819,-5.07,-1.79,8.43,-0.00,-0.00,-0.00,41.62,11.25,-10.06,0.04,-0.06,0.10,-5.10,-1.73,8.32,0.94,-0.03,0.28,-0.21,12
738859,-5.11,-1.71,8.27,0.01,-0.00,-0.00,40.94,10.56,-8.38,-0.00,0.02,-0.05,-5.10,-1.73,8.32,0.93,-0.03,0.28,-0.21,12
738899,-5.07,-1.71,8.34,0.00,-0.02,0.00,41.25,10.62,-9.44,0.03,0.03,0.02,-5.09,-1.74,8.32,0.94,-0.03,0.28,-0.21,12
738939,-5.07,-1.75,8.34,0.03,0.02,0.01,41.38,11.81,-9.44,0.03,-0.03,0.02,-5.09,-1.73,8.33,0.94,-0.03,0.28,-0.21,12
738979,-5.18,-1.87,8.46,0.16,0.12,0.09,41.38,11.81,-9.44,-0.05,-0.20,0.15,-5.13,-1.67,8.31,0.93,-0.03,0.28,-0.21,12
739019,-5.30,-1.68,8.27,0.25,0.15,0.09,41.62,11.44,-7.56,-0.10,-0.11,-0.03,-5.20,-1.57,8.30,0.93,-0.02,0.28,-0.21,12
739059,-5.75,-1.64,8.46,0.75,0.41,0.32,40.88,10.31,-8.69,-0.46,-0.33,0.19,-5.30,-1.31,8.27,0.93,-0.01,0.29,-0.21,12
739099,-5.56,-0.99,7.88,1.19,-0.27,0.36,40.75,6.69,-6.69,-0.28,-0.11,-0.46,-5.28,-0.88,8.34,0.93,0.01,0.28,-0.21,12
739139,-5.11,-1.37,9.34,1.88,-0.84,0.03,44.12,6.31,-4.81,-0.11,-1.13,0.79,-5.00,-0.24,8.55,0.94,0.04,0.26,-0.22,12
739179,-4.41,0.16,8.85,1.74,-0.41,0.12,43.75,6.25,-4.12,0.37,-0.25,0.16,-4.78,0.41,8.68,0.94,0.07,0.24,-0.22,12
739219,-3.88,0.66,7.92,1.80,-0.47,-0.17,45.06,4.31,-5.38,0.75,-0.32,-0.79,-4.62,0.98,8.72,0.94,0.10,0.23,-0.23,12
739259,-4.38,1.46,6.58,1.52,-1.03,-0.19,46.38,4.50,-5.88,-0.03,-0.07,-2.20,-4.34,1.54,8.78,0.94,0.13,0.20,-0.25,12
739299,-4.64,1.43,6.78,1.49,-2.22,-0.10,46.69,3.94,-6.56,-0.97,-0.60,-2.21,-3.67,2.02,8.98,0.94,0.15,0.17,-0.26,12
739340,-3.69,2.57,8.92,0.93,-2.10,0.20,43.19,1.94,-7.25,-0.81,0.13,-0.25,-2.88,2.45,9.16,0.94,0.16,0.12,-0.27,12
739379,-2.77,2.61,9.57,-0.21,-1.75,0.26,39.06,1.19,-9.88,-0.59,0.14,0.23,-2.18,2.48,9.34,0.95,0.16,0.08,-0.27,12
739419,-2.38,2.11,11.03,0.57,-1.94,0.71,35.62,1.50,-12.19,-0.95,-0.52,1.58,-1.43,2.63,9.45,0.95,0.15,0.04,-0.27,12
739459,-1.23,2.84,10.38,0.30,-1.81,0.62,32.69,0.19,-12.81,-0.55,0.06,0.89,-0.68,2.78,9.48,0.95,0.15,0.00,-0.26,12
739500,-1.31,2.96,10.11,0.25,-2.03,0.79,29.62,-0.38,-12.50,-1.42,0.11,0.62,0.11,2.85,9.48,0.96,0.14,-0.03,-0.26,12
739540,-0.39,3.34,9.23,-0.33,-2.03,1.00,25.06,-1.19,-14.81,-1.35,0.55,-0.23,0.96,2.79,9.45,0.96,0.13,-0.07,-0.24,12
739580,0.57,3.00,8.80,-1.21,-2.14,0.65,19.12,-0.50,-16.31,-1.31,0.63,-0.63,1.88,2.37,9.44,0.96,0.11,-0.12,-0.23,12
739620,1.87,2.42,8.43,-1.70,-1.00,0.32,16.25,-0.31,-17.75,-0.47,0.69,-1.05,2.34,1.73,9.47,0.96,0.07,-0.14,-0.23,12
739662,2.52,1.16,7.88,-1.16,-0.12,0.31,13.00,0.50,-16.81,0.01,-0.10,-1.61,2.51,1.26,9.50,0.96,0.04,-0.14,-0.23,12
739700,2.63,1.27,7.32,-2.60,0.05,-0.38,10.19,1.25,-18.62,0.16,0.82,-2.27,2.48,0.45,9.58,0.96,0.01,-0.13,-0.23,12
739740,2.82,0.12,7.50,-4.11,-0.72,-0.88,8.75,4.50,-21.50,0.18,1.05,-1.98,2.64,-0.93,9.48,0.96,-0.06,-0.12,-0.25,12
739780,2.98,-1.60,11.95,-3.67,0.45,-0.51,6.94,9.50,-20.19,0.39,0.78,2.71,2.59,-2.38,9.23,0.94,-0.14,-0.10,-0.28,12
739822,2.90,-3.44,8.88,-2.17,0.85,-0.12,9.88,13.56,-16.38,0.61,-0.20,-0.16,2.30,-3.24,9.05,0.94,-0.19,-0.07,-0.29,12
739860,2.52,-3.44,8.15,-1.61,0.51,-0.57,11.75,14.81,-14.00,0.36,0.36,-0.71,2.16,-3.80,8.86,0.93,-0.22,-0.05,-0.30,12
739900,1.91,-4.40,9.54,0.06,0.42,-0.18,12.75,16.69,-14.75,-0.12,-0.55,0.66,2.03,-3.84,8.87,0.92,-0.22,-0.04,-0.31,12
739940,2.25,-3.36,7.96,0.56,0.64,0.32,11.25,16.00,-14.88,0.47,0.37,-1.01,1.78,-3.73,8.97,0.92,-0.22,-0.03,-0.31,12
739982,2.06,-3.67,9.42,1.18,1.91,0.33,13.94,16.69,-12.75,0.90,-0.30,0.21,1.16,-3.37,9.21,0.93,-0.19,-0.01,-0.31,12
740020,1.21,-3.40,9.54,1.08,2.19,0.67,16.81,15.75,-13.06,0.94,-0.44,0.12,0.27,-2.96,9.41,0.94,-0.16,0.02,-0.31,12
740060,0.80,-2.79,9.95,0.74,2.18,0.86,21.94,15.31,-13.88,1.45,-0.11,0.48,-0.66,-2.68,9.48,0.94,-0.13,0.06,-0.30,12
740100,-1.46,-2.45,9.27,0.37,1.48,0.49,24.88,14.12,-14.19,-0.11,0.04,-0.19,-1.35,-2.48,9.45,0.95,-0.11,0.09,-0.29,12
740143,-2.77,-2.33,9.19,0.05,0.43,0.09,27.56,14.81,-11.69,-1.13,0.09,-0.23,-1.63,-2.42,9.42,0.95,-0.10,0.11,-0.29,12
740180,-1.96,-2.33,9.38,0.09,-0.31,-0.05,30.12,14.50,-12.12,-0.40,0.06,-0.07,-1.56,-2.39,9.45,0.95,-0.09,0.11,-0.29,12
741982,-1.85,-1.87,9.53,-0.00,-0.00,-0.00,32.44,14.31,-11.38,-0.00,0.00,0.00,-1.84,-1.88,9.53,0.95,-0.07,0.12,-0.27,12
742022,-1.85,-1.87,9.53,-0.01,0.01,0.01,32.19,14.38,-12.94,-0.00,0.00,0.00,-1.84,-1.88,9.53,0.95,-0.07,0.12,-0.27,12
742062,-1.85,-1.87,9.53,-0.00,0.00,0.00,32.38,13.00,-13.56,-0.00,-0.00,0.00,-1.84,-1.87,9.53,0.95,-0.07,0.12,-0.27,12
742102,-1.85,-1.87,9.53,0.00,0.00,-0.00,33.31,14.88,-14.62,-0.00,0.00,0.00,-1.84,-1.88,9.53,0.95,-0.07,0.12,-0.27,12
742142,-1.85,-1.87,9.53,-0.00,-0.00,0.00,33.00,13.56,-13.12,-0.00,-0.00,0.00,-1.84,-1.87,9.53,0.95,-0.07,0.12,-0.27,12
742182,-1.85,-1.87,9.53,-0.00,0.00,0.00,34.31,14.31,-13.75,0.00,-0.00,0.00,-1.85,-1.87,9.53,0.95,-0.07,0.12,-0.27,12
742223,-1.85,-1.87,9.53,0.00,0.00,0.00,31.88,14.12,-14.75,0.00,-0.00,0.00,-1.85,-1.87,9.53,0.95,-0.07,0.12,-0.27,12
742262,-1.85,-1.87,9.53,0.00,0.00,0.00,32.88,13.88,-13.88,0.00,-0.00,0.00,-1.85,-1.87,9.53,0.95,-0.07,0.12,-0.27,12
742302,-1.85,-1.87,9.53,0.00,0.00,0.00,31.69,13.75,-13.31,0.00,-0.01,0.00,-1.85,-1.86,9.53,0.95,-0.07,0.12,-0.27,12
742342,-1.85,-1.87,9.53,0.00,-0.00,-0.00,33.56,13.88,-12.75,0.00,-0.01,0.00,-1.85,-1.86,9.53,0.95,-0.07,0.12,-0.27,12
742382,-1.85,-1.87,9.53,0.00,-0.00,-0.00,33.31,14.56,-14.62,0.00,-0.01,0.00,-1.85,-1.86,9.53,0.95,-0.07,0.12,-0.27,12
742422,-1.85,-1.87,9.53,0.00,0.00,-0.00,33.88,13.94,-13.44,0.00,-0.01,0.00,-1.85,-1.86,9.53,0.95,-0.07,0.12,-0.27,12
742462,-1.85,-1.87,9.53,-0.00,0.00,0.00,33.50,13.88,-13.06,0.00,-0.01,0.00,-1.85,-1.86,9.53,0.95,-0.07,0.12,-0.27,12
742503,-1.85,-1.87,9.53,-0.00,0.00,-0.01,31.69,13.12,-12.94,0.00,-0.01,0.00,-1.85,-1.86,9.53,0.95,-0.07,0.12,-0.27,12
742543,-1.85,-1.87,9.53,0.00,-0.00,0.00,33.06,13.38,-15.25,0.00,-0.01,0.00,-1.85,-1.86,9.53,0.95,-0.07,0.12,-0.27,12
742583,-1.85,-1.87,9.53,-0.00,0.00,0.00,33.31,13.62,-13.81,0.00,-0.01,0.00,-1.85,-1.86,9.53,0.95,-0.07,0.12,-0.27,12
742624,-1.85,-1.87,9.53,0.00,-0.00,0.00,32.06,13.50,-13.25,0.00,-0.01,0.00,-1.85,-1.86,9.53,0.95,-0.07,0.12,-0.27,12
742664,-1.85,-1.87,9.53,0.00,-0.00,-0.00,32.50,13.19,-12.81,0.00,-0.01,0.00,-1.85,-1.86,9.53,0.95,-0.07,0.12,-0.27,12
742704,-1.85,-1.87,9.53,0.00,-0.00,0.00,31.56,14.06,-14.06,0.00,-0.01,0.00,-1.85,-1.86,9.53,0.95,-0.07,0.12,-0.27,12
742744,-1.85,-1.87,9.53,0.00,-0.00,0.00,33.31,14.56,-14.62,0.00,-0.01,0.00,-1.85,-1.86,9.53,0.95,-0.07,0.12,-0.27,12
742784,-1.85,-1.87,9.53,-0.00,0.00,-0.00,33.62,14.19,-12.31,0.00,-0.01,0.00,-1.85,-1.86,9.53,0.95,-0.07,0.12,-0.27,12
742824,-1.85,-1.87,9.53,0.00,0.00,0.00,33.06,13.25,-12.38,0.00,-0.00,0.00,-1.85,-1.87,9.53,0.95,-0.07,0.12,-0.27,12
742864,-1.85,-1.87,9.53,0.00,0.01,0.00,32.31,13.56,-14.31,0.00,-0.00,0.00,-1.85,-1.87,9.53,0.95,-0.07,0.12,-0.27,12
742904,-1.85,-1.87,9.57,0.00,0.00,0.00,32.38,14.19,-14.31,0.01,-0.00,-0.04,-1.86,-1.87,9.53,0.95,-0.07,0.12,-0.27,12
742944,-1.85,-1.87,9.53,0.00,-0.00,0.00,31.19,13.75,-13.38,0.01,-0.00,0.04,-1.86,-1.87,9.53,0.95,-0.07,0.12,-0.27,12
742984,-1.85,-1.87,9.53,0.01,0.00,-0.00,32.75,14.06,-12.06,0.01,-0.00,0.00,-1.86,-1.87,9.53,0.95,-0.07,0.12,-0.27,12
743024,-1.81,-1.87,9.54,0.00,-0.00,-0.00,32.25,13.25,-14.69,0.04,-0.00,0.00,-1.85,-1.87,9.53,0.95,-0.07,0.12,-0.27,12
743065,-1.85,-1.87,9.53,0.00,0.00,0.00,30.12,13.69,-14.25,0.00,-0.00,0.00,-1.85,-1.87,9.53,0.95,-0.07,0.12,-0.27,12
743104,-1.85,-1.87,9.53,-0.00,0.00,-0.00,33.06,13.56,-12.44,0.00,-0.00,0.00,-1.85,-1.87,9.53,0.95,-0.07,0.12,-0.27,12
743144,-1.85,-1.87,9.53,0.01,0.00,0.00,33.31,13.06,-13.44,0.00,-0.00,0.00,-1.85,-1.87,9.53,0.95,-0.07,0.12,-0.27,12
743184,-1.85,-1.87,9.53,0.00,0.00,-0.00,32.81,13.56,-14.25,0.00,-0.00,0.00,-1.85,-1.87,9.53,0.95,-0.07,0.12,-0.27,12
743225,-1.85,-1.87,9.53,0.00,0.00,-0.00,32.81,13.56,-14.25,0.00,-0.04,0.00,-1.85,-1.87,9.53,0.95,-0.07,0.12,-0.27,12
743264,-1.85,-1.87,9.53,0.00,0.00,-0.00,31.56,14.06,-14.06,0.00,-0.00,0.00,-1.85,-1.87,9.53,0.95,-0.07,0.12,-0.27,12
743304,-1.85,-1.87,9.53,0.00,-0.00,-0.00,33.94,13.94,-13.00,0.00,-0.00,0.00,-1.85,-1.87,9.53,0.95,-0.07,0.12,-0.27,12
743344,-1.85,-1.87,9.53,0.00,0.00,0.00,32.81,14.50,-14.69,0.00,-0.00,0.00,-1.85,-1.87,9.53,0.95,-0.07,0.12,-0.27,12
743384,-1.85,-1.87,9.53,0.01,0.00,0.00,33.12,14.44,-12.81,0.00,-0.00,0.00,-1.85,-1.87,9.53,0.95,-0.07,0.12,-0.27,12
743424,-1.85,-1.87,9.53,-0.00,0.00,-0.00,32.88,13.88,-13.88,0.00,-0.00,0.00,-1.85,-1.87,9.53,0.95,-0.07,0.12,-0.27,12
743464,-1.85,-1.87,9.53,0.00,0.00,-0.00,33.00,13.25,-12.75,0.00,-0.00,0.00,-1.85,-1.87,9.53,0.95,-0.07,0.12,-0.27,12
743504,-1.85,-1.87,9.53,0.00,0.00,0.00,33.62,13.38,-14.50,0.00,-0.00,0.00,-1.85,-1.87,9.53,0.95,-0.07,0.12,-0.27,12
743546,-1.85,-1.87,9.53,0.00,0.00,0.00,31.88,13.81,-14.38,0.01,-0.00,0.00,-1.86,-1.87,9.53,0.95,-0.07,0.12,-0.27,12
743584,-1.85,-1.87,9.49,0.00,-0.00,0.00,32.62,13.06,-15.00,0.01,-0.00,0.00,-1.86,-1.87,9.53,0.95,-0.07,0.12,-0.27,12
743625,-1.81,-1.87,9.54,0.00,0.00,0.00,32.50,13.50,-13.19,0.01,-0.00,-0.04,-1.86,-1.87,9.53,0.95,-0.07,0.12,-0.27,12
743665,-1.85,-1.87,9.53,0.00,0.00,0.00,32.38,13.88,-14.31,0.01,-0.00,0.00,-1.86,-1.87,9.53,0.95,-0.07,0.12,-0.27,12
743705,-1.85,-1.87,9.53,0.00,-0.00,-0.00,31.94,13.81,-14.00,0.00,0.00,0.01,-1.85,-1.88,9.52,0.95,-0.07,0.12,-0.27,12
743745,-1.85,-1.87,9.53,-0.00,-0.00,-0.00,33.31,13.94,-14.19,0.00,-0.00,0.01,-1.85,-1.87,9.52,0.95,-0.07,0.12,-0.27,12
743785,-1.85,-1.87,9.53,-0.00,0.00,0.00,33.69,14.50,-12.38,0.00,-0.00,0.01,-1.85,-1.87,9.52,0.95,-0.07,0.12,-0.27,12
743825,-1.85,-1.87,9.53,-0.00,-0.00,0.00,34.19,12.81,-13.69,0.00,-0.00,0.01,-1.85,-1.87,9.52,0.95,-0.07,0.12,-0.27,12
743865,-1.85,-1.87,9.53,0.00,-0.00,-0.00,34.25,14.00,-14.06,0.00,-0.00,0.01,-1.85,-1.87,9.52,0.95,-0.07,0.12,-0.27,12
743905,-1.85,-1.87,9.53,0.00,0.00,-0.00,31.81,12.94,-14.31,0.00,-0.00,0.01,-1.85,-1.87,9.52,0.95,-0.07,0.12,-0.27,12
743945,-1.85,-1.87,9.53,0.00,-0.00,-0.00,34.31,13.12,-12.94,0.00,-0.00,0.01,-1.85,-1.87,9.52,0.95,-0.07,0.12,-0.27,12
743985,-1.85,-1.87,9.53,0.00,0.00,-0.00,31.19,13.44,-13.31,-0.00,-0.00,0.00,-1.84,-1.87,9.53,0.95,-0.07,0.12,-0.27,12
744025,-1.85,-1.87,9.57,0.00,-0.00,0.00,32.88,14.19,-14.25,-0.00,-0.00,0.04,-1.84,-1.87,9.53,0.95,-0.07,0.12,-0.27,12
744065,-1.85,-1.87,9.53,-0.00,0.00,-0.00,33.44,13.31,-13.06,-0.00,-0.04,0.00,-1.84,-1.87,9.53,0.95,-0.07,0.12,-0.27,12
744105,-1.85,-1.87,9.53,0.00,0.00,0.00,32.81,14.94,-12.50,-0.00,-0.00,0.00,-1.84,-1.87,9.53,0.95,-0.07,0.12,-0.27,12
744145,-1.85,-1.91,9.54,0.00,0.00,0.00,31.69,14.69,-14.06,0.00,-0.03,0.00,-1.85,-1.88,9.53,0.95,-0.07,0.12,-0.27,12
744185,-1.85,-1.87,9.53,0.00,0.00,0.00,32.00,13.81,-13.62,0.00,0.00,0.00,-1.85,-1.88,9.53,0.95,-0.07,0.12,-0.27,12
744225,-1.85,-1.87,9.53,0.00,0.00,0.00,32.88,13.88,-13.88,0.04,0.00,0.00,-1.85,-1.88,9.53,0.95,-0.07,0.12,-0.27,12
744265,-1.89,-1.91,9.50,0.00,0.00,0.00,32.62,13.81,-12.81,0.00,0.00,0.00,-1.85,-1.88,9.53,0.95,-0.07,0.12,-0.27,12
744305,-1.85,-1.87,9.57,0.00,0.00,0.00,33.31,13.94,-14.19,0.00,0.00,0.04,-1.85,-1.88,9.53,0.95,-0.07,0.12,-0.27,12
744345,-1.85,-1.87,9.53,0.00,0.00,0.00,32.31,13.56,-14.31,0.00,0.00,0.00,-1.85,-1.88,9.53,0.95,-0.07,0.12,-0.27,12
744385,-1.85,-1.87,9.53,0.00,0.00,0.00,31.62,14.94,-14.44,0.00,0.00,0.00,-1.85,-1.88,9.53,0.95,-0.07,0.12,-0.27,12
744425,-1.85,-1.87,9.53,0.00,0.00,0.00,32.44,12.94,-13.19,0.00,0.00,0.00,-1.85,-1.88,9.53,0.95,-0.07,0.12,-0.27,12
744465,-1.85,-1.87,9.53,0.00,0.00,0.00,33.19,13.62,-14.56,0.00,0.00,0.00,-1.85,-1.88,9.53,0.95,-0.07,0.12,-0.27,12
744505,-1.85,-1.87,9.53,0.00,0.00,0.00,33.25,13.94,-14.62,0.00,0.00,0.00,-1.85,-1.88,9.53,0.95,-0.07,0.12,-0.27,12
744545,-1.85,-1.87,9.53,0.00,0.00,0.00,32.00,13.81,-13.69,0.00,-0.00,-0.04,-1.85,-1.87,9.54,0.95,-0.07,0.12,-0.27,12
744585,-1.85,-1.87,9.53,0.00,0.00,0.00,32.19,13.44,-12.12,0.00,-0.00,-0.01,-1.85,-1.87,9.54,0.95,-0.07,0.12,-0.27,12
744625,-1.85,-1.87,9.53,0.00,0.00,0.00,31.94,13.50,-13.62,0.00,-0.00,-0.01,-1.85,-1.87,9.54,0.95,-0.07,0.12,-0.27,12
744666,-1.85,-1.87,9.53,0.00,0.00,0.00,32.44,13.25,-13.50,0.00,-0.00,-0.01,-1.85,-1.87,9.54,0.95,-0.07,0.12,-0.27,12
744706,-1.85,-1.87,9.53,0.00,0.00,0.00,32.50,13.81,-13.62,0.00,-0.00,-0.01,-1.85,-1.87,9.54,0.95,-0.07,0.12,-0.27,12
744746,-1.85,-1.87,9.53,0.00,0.00,0.00,33.25,14.75,-12.44,0.00,-0.00,-0.01,-1.85,-1.87,9.54,0.95,-0.07,0.12,-0.27,12
744786,-1.85,-1.87,9.53,0.00,-0.01,-0.00,31.56,13.44,-13.62,0.00,-0.00,-0.01,-1.85,-1.87,9.54,0.95,-0.07,0.12,-0.27,12
744826,-1.81,-1.87,9.54,-0.00,0.00,0.00,34.25,13.69,-13.69,0.04,-0.00,-0.01,-1.85,-1.87,9.54,0.95,-0.07,0.12,-0.27,12
744866,-1.85,-1.87,9.53,-0.00,-0.00,0.00,33.19,13.06,-14.12,0.00,-0.04,-0.01,-1.85,-1.87,9.54,0.95,-0.07,0.12,-0.27,12
744906,-1.81,-1.87,9.54,0.00,0.00,-0.00,33.19,13.50,-11.69,0.00,0.00,0.00,-1.85,-1.88,9.53,0.95,-0.07,0.12,-0.27,12
744946,-1.85,-1.87,9.53,0.00,0.00,0.00,33.25,12.75,-13.44,0.00,0.00,0.00,-1.85,-1.88,9.53,0.95,-0.07,0.12,-0.27,12
744986,-1.85,-1.87,9.53,-0.00,0.00,-0.00,31.44,13.81,-14.81,0.00,0.00,0.00,-1.85,-1.88,9.53,0.95,-0.07,0.12,-0.27,12
745026,-1.85,-1.87,9.53,0.00,0.00,0.00,31.69,13.25,-15.12,0.00,0.00,0.00,-1.85,-1.88,9.53,0.95,-0.07,0.12,-0.27,12
745066,-1.85,-1.87,9.53,0.00,-0.01,-0.00,32.75,13.81,-12.06,0.00,0.00,0.00,-1.85,-1.88,9.53,0.95,-0.07,0.12,-0.27,12
745106,-1.85,-1.87,9.53,-0.00,0.00,-0.00,32.25,13.56,-14.69,0.00,0.00,0.00,-1.85,-1.88,9.53,0.95,-0.07,0.12,-0.27,12
745147,-1.85,-1.87,9.53,0.00,0.01,0.00,32.81,13.88,-14.25,0.00,0.00,0.00,-1.85,-1.88,9.53,0.95,-0.07,0.12,-0.27,12
745187,-1.85,-1.87,9.53,-0.00,0.00,-0.00,31.62,13.75,-13.69,0.00,0.00,0.01,-1.85,-1.88,9.52,0.95,-0.07,0.12,-0.27,12
745227,-1.85,-1.87,9.53,-0.00,-0.00,-0.00,33.06,13.88,-12.81,0.01,-0.00,0.00,-1.86,-1.87,9.53,0.95,-0.07,0.12,-0.27,12
745267,-1.81,-1.87,9.54,0.00,0.00,0.00,31.94,13.81,-14.00,0.05,-0.00,0.00,-1.86,-1.87,9.53,0.95,-0.07,0.12,-0.27,12
745307,-1.85,-1.87,9.53,0.00,0.00,0.00,33.50,15.06,-13.88,0.00,-0.00,0.00,-1.85,-1.87,9.53,0.95,-0.07,0.12,-0.27,12
745347,-1.81,-1.87,9.54,-0.00,-0.00,0.00,32.50,13.81,-13.56,-0.00,-0.00,0.01,-1.84,-1.87,9.52,0.95,-0.07,0.12,-0.27,12
745387,-1.85,-1.87,9.53,0.00,0.00,-0.00,33.12,14.12,-12.81,0.04,-0.00,0.01,-1.84,-1.87,9.52,0.95,-0.07,0.12,-0.27,12
745427,-1.85,-1.87,9.53,-0.00,0.00,-0.00,33.38,13.06,-13.06,-0.00,-0.00,0.01,-1.84,-1.87,9.52,0.95,-0.07,0.12,-0.27,12
745474,-1.85,-1.87,9.53,0.00,-0.00,0.00,33.38,14.56,-14.19,-0.00,-0.00,0.01,-1.84,-1.87,9.52,0.95,-0.07,0.12,-0.27,12
745511,-1.85,-1.87,9.53,0.00,0.00,-0.00,32.62,13.81,-12.50,-0.00,-0.00,0.01,-1.84,-1.87,9.52,0.95,-0.07,0.12,-0.27,12
745551,-1.85,-1.87,9.49,0.00,0.00,-0.00,31.19,13.44,-13.31,-0.00,-0.00,0.01,-1.84,-1.87,9.52,0.95,-0.07,0.12,-0.27,12
745591,-1.85,-1.83,9.53,0.01,-0.02,0.01,32.94,13.88,-13.50,-0.00,-0.00,-0.03,-1.84,-1.87,9.52,0.95,-0.07,0.12,-0.27,12
745631,-1.93,-1.87,9.34,0.19,-0.26,0.10,33.50,14.81,-13.50,-0.10,-0.02,-0.19,-1.83,-1.85,9.53,0.95,-0.06,0.11,-0.27,12
745670,-1.70,-1.75,9.69,0.09,-0.15,0.05,32.06,13.50,-13.25,-0.08,-0.12,-0.18,-1.77,-1.79,9.55,0.96,-0.06,0.11,-0.27,12
745711,-1.70,-1.71,9.57,0.08,-0.04,0.02,32.44,13.50,-13.56,0.02,-0.00,0.12,-1.71,-1.75,9.57,0.96,-0.06,0.11,-0.27,12
745751,-1.62,-1.75,9.69,0.03,-0.01,0.01,31.94,14.12,-14.38,0.01,-0.00,0.00,-1.70,-1.71,9.57,0.96,-0.06,0.11,-0.27,12
745791,-1.73,-1.71,9.65,-0.01,0.04,-0.01,30.06,12.81,-14.19,-0.03,-0.01,0.08,-1.70,-1.70,9.57,0.96,-0.06,0.11,-0.27,12
745831,-1.70,-1.71,9.61,-0.04,0.05,-0.02,31.81,14.06,-12.56,0.02,-0.01,0.04,-1.71,-1.70,9.57,0.96,-0.06,0.11,-0.27,12
745872,-1.73,-1.75,9.61,-0.04,0.05,-0.02,33.06,14.19,-13.12,0.03,0.00,0.05,-1.73,-1.72,9.56,0.96,-0.06,0.11,-0.27,12
745912,-1.73,-1.75,9.50,0.02,-0.01,0.01,32.50,14.12,-13.56,0.02,-0.02,0.05,-1.75,-1.73,9.55,0.96,-0.06,0.11,-0.27,12
745952,-1.77,-1.75,9.54,0.00,-0.02,0.00,32.56,14.75,-13.56,-0.02,-0.02,-0.02,-1.75,-1.73,9.55,0.96,-0.06,0.11,-0.27,12
745992,-1.73,-1.75,9.57,0.00,0.03,-0.01,32.38,12.69,-13.12,0.01,-0.02,0.02,-1.74,-1.73,9.55,0.96,-0.06,0.11,-0.27,12
746032,-1.66,-1.71,9.65,-0.01,0.06,0.02,33.25,13.81,-11.69,0.02,-0.02,0.02,-1.76,-1.73,9.55,0.96,-0.06,0.11,-0.27,12
746072,-1.62,-1.71,9.69,-0.07,0.21,0.02,30.81,14.62,-13.81,0.06,0.03,0.05,-1.72,-1.74,9.59,0.95,-0.06,0.11,-0.27,12
746112,-1.77,-1.75,9.72,-0.57,0.46,-0.19,32.44,11.75,-12.44,0.03,0.02,0.14,-1.80,-1.77,9.58,0.95,-0.06,0.12,-0.27,12
746152,-1.23,-2.64,10.84,-0.56,1.37,0.42,32.62,14.12,-12.88,0.04,0.14,0.76,-1.97,-2.01,9.50,0.95,-0.08,0.14,-0.27,12
746192,-3.57,-4.02,12.41,2.24,1.10,-0.04,35.25,10.62,-13.44,1.30,-0.56,1.49,-2.53,-2.08,9.34,0.95,-0.04,0.16,-0.26,12
746232,-3.00,-1.68,10.45,1.44,0.91,0.13,33.75,9.75,-16.06,-0.59,-2.70,3.05,-2.98,-1.31,9.36,0.95,-0.00,0.17,-0.27,12
746272,-3.23,-0.64,7.77,0.82,0.42,0.00,35.06,8.38,-15.50,0.10,0.13,-1.54,-3.33,-0.77,9.31,0.95,0.02,0.18,-0.27,12
746313,-3.76,-0.03,7.54,0.38,0.08,0.12,36.31,6.38,-14.19,0.22,0.05,-1.93,-3.48,-0.46,9.28,0.94,0.03,0.18,-0.27,12
746352,-3.80,0.12,8.46,-0.54,0.01,0.04,36.50,7.50,-13.88,-0.25,0.29,-1.73,-3.52,-0.32,9.27,0.94,0.03,0.18,-0.27,12
746392,-3.61,-0.18,9.11,-0.57,-0.03,0.02,36.00,8.12,-14.62,-0.28,0.61,-0.81,-3.52,-0.49,9.27,0.95,0.02,0.19,-0.27,12
746432,-3.50,-0.68,9.23,-0.39,0.08,0.03,36.00,8.12,-14.62,0.03,0.01,-0.03,-3.52,-0.70,9.26,0.95,0.01,0.19,-0.27,12
746473,-3.38,-0.76,9.11,0.01,-0.00,0.13,35.94,8.88,-13.25,-0.02,-0.13,0.21,-3.55,-0.82,9.24,0.95,0.01,0.19,-0.26,12
746512,-3.30,-0.61,9.04,0.31,0.06,0.26,37.25,7.50,-12.25,0.18,0.05,-0.12,-3.55,-0.81,9.23,0.95,0.01,0.19,-0.26,12
746552,-3.07,-0.84,9.57,0.99,0.27,0.15,39.25,7.75,-13.50,0.29,0.04,-0.20,-3.59,-0.65,9.23,0.95,0.03,0.19,-0.26,12
746592,-3.19,0.01,9.00,0.55,0.86,0.12,39.25,7.75,-13.50,0.52,0.29,-0.21,-3.71,-0.28,9.21,0.95,0.05,0.19,-0.26,12
746635,-4.38,0.05,10.26,0.36,2.47,0.27,46.19,7.25,-9.31,0.71,0.40,0.04,-4.05,-0.05,9.07,0.94,0.06,0.22,-0.26,12
746672,-5.45,-0.26,10.22,0.30,3.77,0.46,50.50,6.81,-4.38,0.52,-0.09,1.63,-4.90,0.13,8.63,0.92,0.09,0.28,-0.24,12
746712,-6.52,0.05,8.00,-0.33,3.53,0.52,55.44,7.38,-1.62,0.68,-0.57,2.42,-6.12,0.30,7.80,0.90,0.11,0.35,-0.23,12
746752,-7.71,0.01,7.27,0.03,2.19,0.82,59.62,6.62,2.50,-0.58,-0.38,0.37,-7.13,0.39,6.91,0.88,0.12,0.40,-0.21,12
746794,-7.29,1.12,4.86,-0.44,1.35,0.72,60.62,5.50,4.19,-0.19,-0.28,0.04,-7.71,0.63,6.23,0.87,0.13,0.43,-0.19,12
746833,-6.79,1.16,4.29,-0.71,1.36,0.61,61.12,5.38,7.56,0.74,0.36,-0.95,-8.03,0.76,5.80,0.87,0.13,0.45,-0.17,12
746873,-7.17,0.85,3.98,-0.48,1.29,0.53,63.75,5.81,9.69,1.52,0.37,-1.11,-8.31,0.79,5.40,0.86,0.13,0.47,-0.15,12
746913,-7.14,0.89,3.90,-0.58,1.74,0.35,65.44,4.94,12.06,1.43,0.04,-1.07,-8.56,0.85,4.97,0.85,0.13,0.50,-0.13,12
746955,-8.67,0.12,6.20,0.99,2.87,1.10,65.25,3.12,12.44,1.79,-0.29,0.52,-8.89,0.91,4.34,0.82,0.14,0.54,-0.12,12
746993,-9.51,1.50,3.40,0.99,2.60,1.52,66.19,1.12,19.62,0.58,-1.25,2.87,-9.25,1.37,3.33,0.79,0.18,0.57,-0.09,12
747033,-8.97,1.54,3.79,1.15,2.08,0.34,66.31,1.12,20.38,-0.05,-0.50,1.15,-9.46,2.00,2.25,0.76,0.21,0.61,-0.08,12
747073,-11.50,3.11,-0.46,-0.17,0.73,0.58,67.38,-1.25,23.12,-1.94,0.81,-1.79,-9.56,2.30,1.33,0.74,0.23,0.63,-0.07,12
747113,-10.27,2.46,0.15,0.10,0.46,0.16,65.56,-1.12,22.88,-0.73,-0.01,-0.91,-9.55,2.47,1.06,0.74,0.23,0.63,-0.07,12
747153,-10.20,2.73,0.49,0.13,0.01,0.12,66.62,-1.06,23.75,0.11,-0.43,0.78,-9.54,2.54,0.90,0.73,0.23,0.64,-0.06,12
747193,-9.81,2.80,0.91,0.23,-0.46,-0.29,66.62,0.19,22.62,-0.67,0.12,-0.38,-9.53,2.60,0.87,0.73,0.24,0.63,-0.07,12
747233,-9.82,2.57,1.30,0.28,-0.25,-0.55,65.19,-1.06,20.69,-0.28,0.07,0.27,-9.54,2.50,1.02,0.74,0.23,0.63,-0.08,12
747273,-10.28,2.23,1.83,0.42,0.54,0.40,66.88,-0.69,22.31,-0.70,-0.11,0.74,-9.58,2.34,1.09,0.73,0.24,0.63,-0.09,12
747313,-11.04,2.11,1.98,0.42,0.89,0.73,65.50,-0.31,24.69,-1.95,-0.71,1.31,-9.55,2.48,0.87,0.72,0.25,0.64,-0.08,12
747353,-10.62,2.42,1.30,0.63,1.28,0.76,63.94,-1.88,24.12,-1.54,-0.66,1.49,-9.51,2.77,0.49,0.71,0.27,0.65,-0.07,12
747393,-9.93,2.34,0.91,0.59,1.59,1.01,65.12,-1.81,26.12,-0.49,-0.73,0.97,-9.44,3.07,-0.05,0.69,0.29,0.66,-0.05,12
747433,-9.86,2.69,-0.04,0.41,1.56,1.09,63.62,-3.25,28.56,-0.57,-0.75,0.68,-9.29,3.44,-0.73,0.66,0.32,0.68,-0.04,12
747473,-8.06,3.45,-0.81,-0.02,1.83,1.38,64.50,-3.88,31.62,-0.05,-0.79,0.67,-9.07,3.83,-1.37,0.64,0.34,0.69,-0.01,12
747513,-7.29,3.76,-0.85,-0.17,2.30,1.64,62.56,-4.12,33.62,0.67,-0.86,1.22,-8.73,4.31,-2.03,0.61,0.36,0.71,0.02,12
747553,-7.52,4.11,-2.27,0.12,2.17,1.77,60.38,-5.50,34.81,0.70,-0.75,0.51,-8.22,4.86,-2.77,0.58,0.38,0.72,0.06,12
747593,-6.91,4.57,-2.80,-0.07,0.86,1.55,58.94,-8.94,36.62,0.68,-0.84,0.67,-7.59,5.41,-3.47,0.55,0.40,0.73,0.09,12
747633,-7.40,5.48,-5.06,-0.49,0.23,1.70,58.56,-10.19,38.06,0.13,-0.64,-0.40,-7.11,5.86,-3.74,0.54,0.42,0.72,0.11,12
747673,-6.49,4.64,-4.03,0.07,0.04,1.46,57.88,-11.06,36.94,-0.72,-0.88,-1.37,-6.68,6.37,-3.70,0.54,0.44,0.71,0.13,12
747713,-7.36,5.06,-4.79,-0.14,-0.40,2.36,54.06,-12.88,36.94,-1.11,-1.71,-1.09,-6.25,6.77,-3.70,0.53,0.47,0.69,0.16,12
747753,-6.71,6.18,-5.45,-0.55,-0.71,1.97,54.00,-15.44,35.62,-1.09,-1.18,-1.87,-5.62,7.36,-3.58,0.54,0.50,0.66,0.18,12
747793,-5.22,6.60,-5.79,-1.81,-0.76,1.79,51.06,-18.00,36.12,-0.08,-1.67,-2.56,-5.14,7.84,-3.27,0.55,0.51,0.63,0.21,12
747833,-3.42,6.71,-4.14,-1.73,-0.68,0.49,52.06,-19.56,32.69,-0.49,-1.74,-3.22,-4.73,8.34,-2.57,0.58,0.50,0.60,0.23,12
747874,-4.45,7.09,-2.77,-0.81,-0.50,0.69,51.00,-20.44,32.56,0.16,-1.49,-0.88,-4.61,8.59,-1.88,0.59,0.50,0.58,0.25,12
747915,-4.18,7.86,-2.15,-0.78,-0.82,-0.17,52.88,-21.38,30.69,0.22,-0.91,-0.68,-4.41,8.77,-1.47,0.61,0.50,0.57,0.26,12
747954,-4.34,10.12,-1.84,-0.45,-0.15,-0.27,53.12,-21.75,32.56,2.12,1.39,-0.98,-4.43,8.80,-1.09,0.62,0.49,0.56,0.26,12
747994,-4.45,9.27,-1.46,-0.68,-0.53,0.20,52.62,-21.31,29.25,0.15,1.34,-0.94,-4.49,8.78,-0.91,0.63,0.49,0.55,0.26,12
748034,-3.99,9.97,-1.08,-0.98,-0.22,0.42,52.88,-21.88,28.88,0.48,1.15,-0.49,-4.47,8.82,-0.59,0.64,0.48,0.54,0.27,12
748074,-3.57,9.05,-0.27,-1.71,-0.16,0.30,50.75,-22.56,26.88,0.78,0.16,-0.08,-4.35,8.89,-0.20,0.65,0.47,0.53,0.29,12
748114,-3.04,10.66,2.18,-1.36,0.10,-0.91,52.81,-22.94,26.44,0.92,0.54,0.02,-4.27,8.93,0.40,0.67,0.44,0.52,0.30,12
748155,-4.61,13.26,3.33,0.37,0.46,-1.13,53.25,-21.06,24.88,1.54,1.91,1.38,-4.57,8.74,0.80,0.67,0.42,0.53,0.29,12
748195,-5.83,9.51,1.45,0.37,0.00,-0.09,52.81,-20.56,24.88,-0.88,0.96,0.82,-4.95,8.55,0.63,0.67,0.42,0.54,0.28,12
748235,-3.99,5.64,1.11,0.19,-0.45,-0.24,54.38,-19.88,25.38,1.02,-2.89,0.61,-5.02,8.53,0.50,0.67,0.42,0.54,0.27,12
748275,-1.85,5.37,1.30,0.73,-0.32,-0.28,54.00,-20.56,26.44,1.91,-3.29,-0.60,-5.06,8.51,0.52,0.68,0.43,0.54,0.26,12
748315,-1.70,6.75,1.26,1.17,0.08,-0.50,55.12,-19.56,26.88,3.28,-3.11,0.95,-5.12,8.48,0.34,0.67,0.44,0.55,0.25,12
748355,-3.04,7.70,-0.46,-1.25,0.81,-0.04,55.81,-19.81,26.31,2.25,-0.67,-0.42,-5.28,8.38,-0.05,0.67,0.44,0.56,0.24,12
748395,-3.54,8.66,-2.00,-1.35,-0.55,-0.44,56.19,-20.06,25.94,1.84,0.37,-2.25,-5.38,8.30,0.26,0.68,0.41,0.55,0.25,12
748435,-6.64,10.08,0.11,-1.32,-0.06,-0.80,57.75,-19.38,26.50,0.86,-0.06,-0.81,-5.50,8.15,0.84,0.70,0.39,0.54,0.25,12
748475,-6.52,8.36,1.49,-0.75,0.29,-0.88,59.56,-19.69,24.50,-0.92,2.14,-1.16,-5.72,7.94,1.27,0.71,0.37,0.54,0.25,12
748515,-7.48,8.78,1.76,-0.26,0.35,-0.62,60.56,-18.75,24.62,-1.51,1.08,0.31,-5.97,7.70,1.45,0.72,0.35,0.55,0.25,12
748555,-8.32,9.09,2.18,0.38,0.02,-0.39,63.25,-18.25,24.56,-2.15,1.55,0.76,-6.17,7.54,1.42,0.72,0.34,0.56,0.24,12
748595,-6.56,6.98,0.53,-0.07,-0.20,-0.10,62.44,-18.12,27.06,-2.16,0.58,0.01,-6.28,7.47,1.33,0.72,0.34,0.56,0.24,12
748635,-5.45,7.28,0.30,-0.22,0.29,-0.80,63.06,-17.75,25.62,-0.23,-0.45,-0.86,-6.33,7.43,1.39,0.72,0.34,0.56,0.23,12
748675,-6.75,7.79,0.80,-0.44,0.06,-1.32,63.44,-16.81,24.50,-0.20,0.57,-0.61,-6.55,7.21,1.41,0.73,0.32,0.57,0.22,12
748715,-7.79,7.17,1.60,-0.39,-0.02,-0.99,64.62,-14.31,24.19,-0.88,0.31,0.11,-6.91,6.86,1.49,0.73,0.30,0.57,0.21,12
748755,-7.48,6.06,2.37,0.04,-0.37,-1.50,65.38,-13.19,25.31,-0.74,-1.02,1.19,-7.20,6.54,1.60,0.74,0.28,0.58,0.19,12
748795,-7.52,5.71,1.95,0.16,-0.34,-0.20,66.44,-11.75,22.81,0.02,-0.11,0.68,-7.50,6.17,1.70,0.75,0.28,0.58,0.18,12
748835,-7.36,5.95,1.98,0.08,0.17,-0.36,66.81,-10.69,24.31,0.19,-0.14,0.24,-7.55,6.09,1.74,0.75,0.28,0.58,0.17,12
748875,-8.13,6.86,1.03,-0.04,-0.04,-0.10,67.19,-11.81,24.38,-0.49,0.87,-0.67,-7.64,5.99,1.70,0.75,0.27,0.58,0.17,12
748916,-7.82,5.79,1.98,0.12,0.05,0.08,67.00,-11.31,25.75,-0.43,-0.35,0.12,-7.66,5.95,1.71,0.75,0.27,0.58,0.17,12
748956,-7.48,6.10,1.60,0.05,0.03,0.06,66.06,-12.12,23.50,-0.18,-0.20,0.31,-7.65,5.99,1.67,0.75,0.28,0.58,0.17,12
748996,-7.48,6.14,1.45,-0.00,0.06,0.02,66.50,-12.44,23.56,0.16,0.09,-0.04,-7.64,6.01,1.64,0.75,0.28,0.58,0.17,12
749036,-7.60,6.18,1.53,0.03,0.08,-0.06,66.62,-11.81,23.94,0.05,0.15,-0.09,-7.64,6.02,1.62,0.74,0.28,0.58,0.17,12
749076,-7.63,5.71,1.87,0.07,0.05,-0.02,64.88,-12.25,24.12,-0.17,-0.02,0.09,-7.66,6.01,1.59,0.74,0.28,0.58,0.17,12
749116,-7.48,5.79,1.76,0.07,0.02,-0.09,67.12,-12.12,24.38,0.04,-0.29,0.32,-7.67,6.01,1.55,0.74,0.28,0.59,0.17,12
749156,-7.60,6.14,1.30,0.06,0.02,-0.03,65.81,-12.19,24.25,0.21,-0.18,0.23,-7.70,5.98,1.53,0.74,0.28,0.59,0.16,12
749196,-8.05,6.44,1.14,0.05,0.12,0.22,65.75,-12.81,24.25,-0.35,0.46,-0.36,-7.70,5.98,1.51,0.74,0.28,0.59,0.17,12
